File: lectrix_internship/work/Automationdashboard/data/log_file.csv
id,timestamp,localtime,percentage_of_can_ids,MotorSpeed_340920578,PackCurr_6,PackVol_6,Throttle_408094978,SOC_8,DchgFetStatus_9,DchgOverTempProt_9,DchgUnderTempProt_9,PackUnderVolProt_9,PackOverVolProt_9,DchgOverCurrProt_9,CellOverVolProt_9,ChgPeakProt_9,FetFailure_9,IgnitionStatus_12,Throttle_Error_408094978,DriveError_Motor_hall_408094978,Motor_Stalling_408094978,Motor_Phase_loss_408094978,Controller_Over_Temeprature_408094978,Motor_Over_Temeprature_408094978,Overcurrent_Fault_408094978,DriveError_Controller_OverVoltag_408094978,Controller_Undervoltage_408094978,MOSFET_Protection_408094978,BatteryVoltage_340920578,BatteryCurrent_340920578,AC_Current_340920579,AC_Voltage_340920580,CellUnderVolWarn_9,Dchg_Accumulative_Ah_14,ChargerType_12,CellVol02_1,PcbTemp_12,Reverse_Pulse_408094978,LatchProtection_12,Temp6_10,Temp3_10,ForwardParking_Mode_Ack_408094978,CellOverDevProt_9,AvgCellVol_5,MinVoltId_5,DriveStatus1_Ride_418513673,LoadDetection_12,Set_Regen_418513673,number_of_records,ChgOverCurrProt_9,BuzzerStatus_12,MinCellVol_5,CellVol04_1,CellOverVolWarn_9,CellVol08_2,CellBalFeatureStatus_12,Temp2_10,CellUnderVolProt_9,Temp8_10,Hill_hold_Ack_408094978,CellVol06_2,AfeTemp_12,LatchType_12,DI1_12,Wakeup_Ack_408094978,PreChgFetStatus_9,DchgOverTempWarn_9,MCU_ID_408094979,BMS_Serial_No_MUX_11,Temp1_10,DriveStatus2_Reverse_Request_418513673,Mode_Ack_408094978,ModeR_Pulse_408094978,VCU_ID_418513673,ResSocProt_9,CellVol12_3,HwVer_13,Temp4_10,Side_Stand_Ack_408094978,DchgUnderTempWarn_9,ChgFetStatus_9,ImmoChg_12,timestamp,ChargeSOP_16,BMS_Serial_No__1_7_11,FWSubVer_13,CellVol05_2,ShortCktProt_9,DO2_12,BattLowSocWarn_9,ChgUnderTempWarn_9,BmsStatus_8,ChgOverTempProt_9,InternalFWSubVer_21,Chg_Accumulative_Ah_14,Park_Pulse_408094978,CellVol16_4,CellVol07_2,InternalFWVer_21,sequence,CellVol01_1,LedStatus_9,MaxTempId_7,CellVol15_4,CellVol09_3,DschgPeakProt_9,Motor_Temperature_408094979,_3v3Vol_15,ChargerDetection_12,Actual_SoC_18,SOCAh_8,Usable_Capacity_Ah_18,BMS_Serial_No_Bytes_8_14_11,Mode_Request_418513673,PackOverVolWarn_9,Temp7_10,ChgOverTempWarn_9,SOH_8,Temp5_10,MaxCellVol_5,Direction_Ack_408094978,DC_Current_Limit_418513673,Ride_Ack_408094978,MaxVoltId_5,BMS_Serial_No__15_11,_12vVol_15,MCU_Fault_Code_408094979,CycleCount_7,MCU_Temperature_408094979,TempSenseFault_9,Hill_Hold_418513673,MinTemp_7,CellVol13_4,DchgSOP_16,Drive_418513673,CellVol14_4,FetTemp_8,WakeUp_Request_418513673,PackUnderVolWarn_9,CellVol10_3,ConfigVer_21,FetTempProt_9,number_of_can_ids,ChgAuth_9,Brake_Pulse_408094978,CellVol03_1,ForwardPark_Request_418513673,CanCommDetection_12,DriveStatus_Regenerative_Braking_408094978,MinTempId_7,ResStatus_9,ModeL_Pulse_408094978,CellVolMinMaxDev_7,ImmoDchg_12,CellChemType_12,ChgUnderTempProt_9,CellVol11_3,MaxTemp_7,RefVol_15,_5vVol_15,DO1_12,SideStand_Pulse_408094978,FwVer_13,DI2_12,ActiveCellBalStatus_9
3,1711002019540,21/03/2024 11:50:19.540,95.8333,3475,-54.426,50.246,12,26,1,0,0,0,0,0,0,0,0,1,0,0,0,0,0,0,0,0,0,0,5.0,51.1,58.3,3.2,0,3870769,2,3.143,59,0,0,40,40,0,0,3.14,8,1,0,20,28,0,0,3.127,3.141,0,3.127,1,42,0,41,0,3.144,60,0,0,1,0,0,256,,39,0,2,0,0,0,3.139,5718322,40,0,0,1,0,1711002019540,20000,,12337,3.144,0,0,0,0,4,0,12853,4215.196,0,3.131,3.144,3354936,48236,3.14,0,5,3.143,3.146,0,0,3.291,0,2693.43,10.666,37.2,,2,0,38,0,89,43,3.146,0,105,1,9,,12.458,0,130,40,0,0,38,3.145,66617,2880,3.14,61,1,0,3.137,4272433,0,23,1,0,3.142,0,1,0,7,0,0,0.019,0,2,0,3.14,43,5.108,5.084,0,0,4469048,0,0
3,1711002016380,21/03/2024 11:50:16.380,91.6667,3461,-98.191,49.636,18,27,1,0,0,0,0,0,0,0,0,1,0,0,0,0,0,0,0,0,0,0,4.9,97.4,58.7,3.8,0,3870712,2,3.11,59,0,0,40,40,0,0,3.102,8,,0,,22,0,0,3.075,3.106,0,3.075,1,42,0,41,0,3.098,60,0,0,1,0,0,256,,39,,2,0,,0,3.104,5718322,40,0,0,1,0,1711002016380,20000,,12337,3.108,0,0,0,0,4,0,12853,4215.196,0,3.093,3.109,3354936,47155,3.1,0,5,3.105,3.109,0,0,3.3,0,2707.82,10.723,37.2,,,0,38,0,89,43,3.11,0,,1,2,,12.466,0,130,40,0,,38,3.109,66841,,3.107,60,,0,3.101,4272433,0,22,1,0,3.103,,1,0,7,0,0,0.035,0,2,0,3.099,43,5.113,5.098,0,0,4469048,0,0
3,1711002013200,21/03/2024 11:50:13.200,91.6667,3415,-53.151,50.347,12,27,1,0,0,0,0,0,0,0,0,1,0,0,0,0,0,0,0,0,0,0,5.0,52.6,48.9,3.5,0,3870670,2,3.149,59,0,0,40,40,0,0,3.146,8,,0,,27,0,0,3.135,3.146,0,3.135,1,42,0,41,0,3.15,60,0,0,1,0,0,256,,39,,2,0,,0,3.146,5718322,40,0,0,1,0,1711002013200,20000,,12337,3.15,0,0,0,0,4,0,12853,4215.196,0,3.135,3.151,3354936,46047,3.146,0,5,3.149,3.154,0,0,3.293,0,2718.43,10.765,37.2,,,0,38,0,89,43,3.154,0,,1,9,,12.386,0,130,40,0,,38,3.151,67007,,3.146,60,,0,3.145,4272433,0,22,1,0,3.147,,1,0,7,0,0,0.019,0,2,0,3.147,43,5.1,5.054,0,0,4469048,0,0
3,1711002010088,21/03/2024 11:50:10.088,95.8333,3492,-59.898,50.175,13,27,1,0,0,0,0,0,0,0,0,1,0,0,0,0,0,0,0,0,0,0,5.0,60.4,61.9,3.3,0,3870624,2,3.139,59,0,0,40,40,0,0,3.135,8,1,0,20,28,0,0,3.12,3.137,0,3.12,1,42,0,41,0,3.139,60,0,0,1,0,0,256,,39,0,2,0,0,0,3.135,5718322,40,0,0,1,0,1711002010088,20000,,12337,3.139,0,0,0,0,4,0,12853,4215.196,0,3.125,3.14,3354936,44967,3.134,0,5,3.138,3.143,0,0,3.294,0,2730.05,10.811,37.2,,2,0,38,0,89,43,3.143,0,105,1,9,,12.386,0,130,40,0,0,38,3.143,67188,2880,3.135,60,1,0,3.134,4272433,0,23,1,0,3.139,0,1,0,7,0,0,0.023,0,2,0,3.135,43,5.1,5.054,0,0,4469048,0,0
3,1711002006900,21/03/2024 11:50:06.900,91.6667,3486,-70.109,50.104,15,27,1,0,0,0,0,0,0,0,0,1,0,0,0,0,0,0,0,0,0,0,5.0,69.1,66.1,3.4,0,3870568,2,3.135,59,0,0,40,40,0,0,3.131,8,,0,,25,0,0,3.113,3.132,0,3.113,1,42,0,41,0,3.134,60,0,0,1,0,0,256,,39,,2,0,,0,3.13,5718322,40,0,0,1,0,1711002006900,20000,,12337,3.136,0,0,0,0,4,0,12853,4215.196,0,3.12,3.134,3354936,43862,3.132,0,5,3.134,3.138,0,0,3.299,0,2744.19,10.867,37.2,,,0,38,0,89,43,3.138,0,,1,9,,12.381,0,130,40,0,,38,3.138,67407,,3.133,59,,0,3.128,4272433,0,22,1,0,3.136,,1,0,7,0,0,0.025,0,2,0,3.131,43,5.103,5.07,0,0,4469048,0,0
3,1711002003700,21/03/2024 11:50:03.700,91.6667,3491,-64.778,50.243,14,27,1,0,0,0,0,0,0,0,0,1,0,0,0,0,0,0,0,0,0,0,5.0,64.4,58.2,3.4,0,3870509,2,3.143,59,0,0,40,40,0,0,3.14,8,,0,,22,0,0,3.124,3.14,0,3.124,1,42,0,41,0,3.143,60,0,0,1,0,0,256,,39,,2,0,,0,3.139,5718322,40,0,0,1,0,1711002003700,20000,,12337,3.145,0,0,0,0,4,0,12853,4215.196,0,3.13,3.143,3354936,42748,3.141,0,5,3.143,3.146,0,0,3.3,0,2759.09,10.926,37.2,,,0,38,0,89,43,3.146,0,,1,9,,12.488,0,130,40,0,,38,3.146,67640,,3.14,59,,0,3.137,4272433,0,22,1,0,3.143,,1,0,7,0,0,0.022,0,2,0,3.14,43,5.118,5.1,0,0,4469048,0,0
3,1711002000560,21/03/2024 11:50:00.560,95.8333,3524,-66.886,50.327,12,27,1,0,0,0,0,0,0,0,0,1,0,0,0,0,0,0,0,0,0,0,5.0,63.9,46.1,3.7,0,3870461,2,3.149,59,0,0,40,40,0,0,3.145,8,1,0,20,28,0,0,3.128,3.146,0,3.128,1,42,0,41,0,3.148,60,0,0,1,0,0,256,,39,0,2,0,0,0,3.143,5718322,40,0,0,1,0,1711002000560,20000,,12337,3.15,0,0,0,0,4,0,12853,4215.196,0,3.132,3.148,3354936,41674,3.146,0,5,3.147,3.152,0,0,3.3,0,2771.21,10.974,37.2,,2,0,38,0,89,43,3.152,0,105,1,9,,12.483,0,130,40,0,0,38,3.152,67830,2880,3.147,59,1,0,3.143,4272433,0,23,1,0,3.15,0,1,0,7,0,0,0.024,0,2,0,3.146,43,5.121,5.096,0,0,4469048,0,0
3,1711001997398,21/03/2024 11:49:57.398,91.6667,3505,-49.467,50.578,11,27,1,0,0,0,0,0,0,0,0,1,0,0,0,0,0,0,0,0,0,0,5.1,48.2,47.8,3.5,0,3870406,2,3.165,59,0,0,40,40,0,0,3.161,8,,0,,27,0,0,3.148,3.161,0,3.148,1,42,0,41,0,3.164,60,0,0,1,0,0,256,,39,,2,0,,0,3.161,5718322,40,0,0,1,0,1711001997398,20000,,12337,3.163,0,0,0,0,4,0,12853,4215.196,0,3.149,3.164,3354936,40563,3.162,0,2,3.162,3.166,0,0,3.285,0,2785.1,11.029,37.2,,,0,38,0,89,42,3.166,0,,1,9,,12.381,0,130,40,0,,38,3.166,69505,,3.162,59,,0,3.16,4272433,0,22,1,0,3.163,,1,0,7,0,0,0.018,0,2,0,3.162,42,5.095,5.054,0,0,4469048,0,0
3,1711001994242,21/03/2024 11:49:54.242,91.6667,3442,-36.405,50.819,8,27,1,0,0,0,0,0,0,0,0,1,0,0,0,0,0,0,0,0,0,0,5.1,36.6,33.1,3.6,0,3870372,2,3.178,59,0,0,40,40,0,0,3.176,16,,0,,27,0,0,3.164,3.176,0,3.168,1,42,0,41,0,3.178,60,0,0,1,0,0,256,,39,,2,0,,0,3.174,5718322,40,0,0,1,0,1711001994242,20000,,12337,3.178,0,0,0,0,4,0,12853,4215.196,0,3.164,3.18,3354936,39456,3.176,0,2,3.177,3.181,0,0,3.296,0,2793.68,11.063,37.2,,,0,38,0,89,42,3.181,0,,1,9,,12.381,0,130,40,0,,38,3.181,69627,,3.177,59,,0,3.176,4272433,0,22,1,0,3.179,,1,0,7,0,0,0.017,0,2,0,3.176,42,5.103,5.065,0,0,4469048,0,0
3,1711001991100,21/03/2024 11:49:51.100,91.6667,3534,-23.343,50.955,7,28,1,0,0,0,0,0,0,0,0,1,0,0,0,0,0,0,0,0,0,0,5.1,21.7,45.9,3.2,0,3870347,2,3.187,59,0,0,40,40,0,0,3.184,16,,0,,22,0,0,3.174,3.185,0,3.177,1,42,0,41,0,3.187,60,0,0,1,0,0,256,,39,,2,0,,0,3.184,5718322,40,0,0,1,0,1711001991100,20000,,12337,3.186,0,0,0,0,4,0,12853,4215.196,0,3.174,3.186,3354936,38376,3.185,0,2,3.186,3.188,0,0,3.298,0,2800.0,11.088,37.2,,,0,38,0,89,42,3.189,0,,1,13,,12.479,0,130,40,0,,38,3.189,69720,,3.186,59,,0,3.184,4272433,0,22,1,0,3.186,,1,0,7,0,0,0.015,0,2,0,3.185,42,5.116,5.096,0,0,4469048,0,0
3,1711001987880,21/03/2024 11:49:47.880,91.6667,3550,-59.607,50.493,11,28,1,0,0,0,0,0,0,0,0,1,0,0,0,0,0,0,0,0,0,0,5.0,58.5,38.5,3.9,0,3870308,2,3.158,59,0,0,40,40,0,0,3.155,8,,0,,27,0,0,3.14,3.157,0,3.14,1,42,0,41,0,3.158,60,0,0,1,0,0,256,,39,,2,0,,0,3.156,5718322,40,0,0,1,0,1711001987880,20000,,12337,3.16,0,0,0,0,4,0,12853,4215.196,0,3.148,3.16,3354936,37266,3.154,0,5,3.158,3.161,0,0,3.277,0,2809.84,11.127,37.2,,,0,38,0,89,43,3.161,0,,1,9,,12.39,0,130,40,0,,38,3.16,68432,,3.154,59,,0,3.152,4272433,0,22,1,0,3.16,,1,0,7,0,0,0.021,0,2,0,3.157,43,5.09,5.056,0,0,4469048,0,0
3,1711001984720,21/03/2024 11:49:44.720,91.6667,3625,-29.346,50.956,8,28,1,0,0,0,0,0,0,0,0,1,0,0,0,0,0,0,0,0,0,0,5.1,28.1,45.3,3.5,0,3870277,2,3.187,59,0,0,40,40,0,0,3.184,16,,0,,27,0,0,3.174,3.185,0,3.178,1,42,0,41,0,3.186,60,0,0,1,0,0,256,,39,,2,0,,0,3.184,5718322,40,0,0,1,0,1711001984720,20000,,12337,3.186,0,0,0,0,4,0,12853,4215.196,0,3.174,3.186,3354936,36161,3.184,0,5,3.187,3.189,0,0,3.28,0,2817.67,11.158,37.2,,,0,38,0,89,43,3.189,0,,1,9,,12.415,0,130,40,0,,38,3.189,68554,,3.185,59,,0,3.185,4272433,0,22,1,0,3.186,,1,0,7,0,0,0.015,0,2,0,3.185,43,5.098,5.065,0,0,4469048,0,0
3,1711001981540,21/03/2024 11:49:41.540,45.8333,3606,,,8,,,,,,,,,,,,0,0,0,0,0,0,0,0,0,0,5.1,33.2,49.1,3.3,,3870229,,,,0,,,,0,,,,1,,20,16,,,,,,,,,,,0,,,,,1,,,256,,,0,2,0,0,,,,,0,,,,1711001981540,20000,,,,,,,,,,12853,4215.196,0,,,3354936,35052,,,,,,,0,3.271,,2829.79,,37.2,,2,,,,,,,0,105,1,,,12.394,0,,40,,0,,,70147,2880,,,1,,,4272433,,11,,0,,0,,0,,,0,,,,,,,5.085,5.056,,0,,,
3,1711001978380,21/03/2024 11:49:38.380,91.6667,3539,-27.097,51.02,4,28,1,0,0,0,0,0,0,0,0,1,0,0,0,0,0,0,0,0,0,0,5.1,24.9,32.8,3.3,0,3870200,2,3.19,59,0,0,40,40,0,0,3.188,16,,0,,23,0,0,3.18,3.189,0,3.181,1,42,0,41,0,3.19,60,0,0,1,0,0,256,,39,,2,0,,0,3.188,5718322,40,0,0,1,0,1711001978380,20000,,12337,3.19,0,0,0,0,4,0,12853,4215.196,0,3.18,3.191,3354936,33971,3.19,0,2,3.191,3.192,0,0,3.299,0,2837.12,11.235,37.2,,,0,38,0,89,42,3.193,0,,1,13,,12.386,0,130,40,0,,38,3.193,70254,,3.189,58,,0,3.188,4272433,0,22,1,0,3.189,,1,0,7,0,0,0.013,0,2,0,3.189,42,5.103,5.068,0,0,4469048,0,0
3,1711001975220,21/03/2024 11:49:35.220,91.6667,3531,-31.224,51.024,7,28,1,0,0,0,0,0,0,0,0,1,0,0,0,0,0,0,0,0,0,0,5.1,30.8,24.2,3.8,0,3870178,2,3.192,59,0,0,40,40,0,0,3.189,16,,0,,22,0,0,3.18,3.19,0,3.181,1,42,0,41,0,3.19,60,0,0,1,0,0,256,,39,,2,0,,0,3.187,5718322,40,0,0,1,0,1711001975220,20000,,12337,3.191,0,0,0,0,4,0,12853,4215.196,0,3.18,3.193,3354936,32858,3.19,0,2,3.188,3.192,0,0,3.299,0,2842.67,11.257,37.2,,,0,38,0,89,42,3.194,0,,1,13,,12.381,0,130,40,0,,38,3.194,70333,,3.188,58,,0,3.189,4272433,0,22,1,0,3.19,,1,0,7,0,0,0.014,0,2,0,3.189,42,5.105,5.089,0,0,4469048,0,0
3,1711001972040,21/03/2024 11:49:32.040,20.8333,3489,,,1,,,,,,,,,,,,0,0,0,0,0,0,0,0,0,0,5.2,6549.2,29.5,3.2,,,,,,0,,,,0,,,,,,,5,,,,,,,,,,,0,,,,,1,,,256,,,,2,0,,,,,,0,,,,1711001972040,,,,,,,,,,,,,0,,,,31753,,,,,,,0,,,,,,,,,,,,,,0,,1,,,,0,,40,,,,,,,,,,,,,,5,,0,,,,0,,,0,,,,,,,,,,0,,,
3,1711001968905,21/03/2024 11:49:28.905,91.6667,3460,-38.212,50.825,9,28,1,0,0,0,0,0,0,0,0,1,0,0,0,0,0,0,0,0,0,0,5.1,37.9,39.7,3.6,0,3870145,2,3.179,59,0,0,40,40,0,0,3.176,8,,0,,27,0,0,3.165,3.178,0,3.165,1,42,0,41,0,3.178,60,0,0,1,0,0,256,,39,,2,0,,0,3.177,5718322,40,0,0,1,0,1711001968905,20000,,12337,3.178,0,0,0,0,4,0,12853,4215.196,0,3.166,3.179,3354936,30678,3.177,0,2,3.178,3.18,0,0,3.274,0,2851.01,11.29,37.2,,,0,38,0,89,42,3.182,0,,1,13,,12.386,0,130,40,0,,38,3.182,70454,,3.178,59,,0,3.174,4272433,0,22,1,0,3.178,,1,0,7,0,0,0.017,0,2,0,3.178,42,5.088,5.056,0,0,4469048,0,0
3,1711001965700,21/03/2024 11:49:25.700,91.6667,3424,-46.545,50.71,11,28,1,0,0,0,0,0,0,0,0,1,0,0,0,0,0,0,0,0,0,0,5.1,46.3,45.9,3.5,0,3870108,2,3.171,59,0,0,40,40,0,0,3.169,16,,0,,22,0,0,3.157,3.17,0,3.159,1,42,0,41,0,3.171,60,0,0,1,0,0,256,,39,,2,0,,0,3.168,5718322,40,0,0,1,0,1711001965700,20000,,12337,3.172,0,0,0,0,4,0,12853,4215.196,0,3.157,3.173,3354936,29563,3.17,0,2,3.171,3.174,0,0,3.277,0,2860.35,11.327,37.2,,,0,38,0,89,42,3.174,0,,1,9,,12.39,0,130,40,0,,38,3.174,70588,,3.17,59,,0,3.168,4272433,0,22,1,0,3.172,,1,0,7,0,0,0.017,0,2,0,3.17,42,5.09,5.054,0,0,4469048,0,0
3,1711001962581,21/03/2024 11:49:22.581,95.8333,3328,-41.133,50.856,11,28,1,0,0,0,0,0,0,0,0,1,0,0,0,0,0,0,0,0,0,0,5.1,38.7,40.0,3.5,0,3870068,2,3.18,59,0,0,40,40,0,0,3.178,16,1,0,20,28,0,0,3.167,3.179,0,3.168,1,42,0,41,0,3.18,60,0,0,1,0,0,256,,39,0,2,0,0,0,3.179,5718322,40,0,0,1,0,1711001962581,20000,,12337,3.18,0,0,0,0,4,0,12853,4215.196,0,3.167,3.182,3354936,28488,3.178,0,2,3.18,3.183,0,0,3.296,0,2870.45,11.367,37.2,,2,0,38,0,89,42,3.184,0,105,1,13,,12.454,0,130,40,0,0,38,3.184,70733,2880,3.179,58,1,0,3.177,4272433,0,23,1,0,3.181,0,1,0,7,0,0,0.017,0,2,0,3.179,42,5.113,5.091,0,0,4469048,0,0
3,1711001959400,21/03/2024 11:49:19.400,91.6667,3355,-34.607,51.007,9,28,1,0,0,0,0,0,0,0,0,1,0,0,0,0,0,0,0,0,0,0,5.1,32.7,31.9,3.5,0,3870025,2,3.19,59,0,0,40,40,0,0,3.187,16,,0,,22,0,0,3.177,3.189,0,3.18,1,42,0,41,0,3.19,60,0,0,1,0,0,256,,39,,2,0,,0,3.187,5718322,40,0,0,1,0,1711001959400,20000,,12337,3.19,0,0,0,0,4,0,12853,4215.196,0,3.177,3.19,3354936,27378,3.188,0,2,3.189,3.193,0,0,3.274,0,2881.31,11.41,37.2,,,0,38,0,89,42,3.193,0,,1,9,,12.386,0,130,40,0,,38,3.192,70890,,3.187,58,,0,3.187,4272433,0,22,1,0,3.19,,1,0,7,0,0,0.016,0,2,0,3.188,42,5.09,5.054,0,0,4469048,0,0
3,1711001956260,21/03/2024 11:49:16.260,20.8333,3400,,,8,,,,,,,,,,,,0,0,0,0,0,0,0,0,0,0,5.2,20.1,40.0,3.3,,,,,,0,,,,0,,,,,,,5,,,,,,,,,,,0,,,,,1,,,256,,,,2,0,,,,,,0,,,,1711001956260,,,,,,,,,,,,,0,,,,26270,,,,,,,0,,,,,,,,,,,,,,0,,1,,,,0,,40,,,,,,,,,,,,,,5,,0,,,,0,,,0,,,,,,,,,,0,,,
3,1711001953140,21/03/2024 11:49:13.140,83.3333,3388,-36.635,51.014,7,28,1,0,0,0,0,0,0,0,0,1,0,0,0,0,0,0,0,0,0,0,5.1,35.1,30.3,3.5,0,3869970,2,3.189,59,0,0,40,40,0,0,3.188,16,,0,,20,0,0,3.177,3.189,0,3.18,1,42,0,41,0,3.19,60,0,0,1,0,0,256,,39,,2,0,,0,3.188,5718322,40,0,0,1,0,1711001953140,20000,,12337,3.19,0,0,0,0,4,0,,4215.196,0,3.177,3.191,,25211,3.189,0,2,3.191,3.193,0,0,3.279,0,,11.465,,,,0,38,0,89,42,3.193,0,,1,9,,12.386,0,130,40,0,,38,3.193,71090,,3.188,58,,0,3.187,,0,20,1,0,3.19,,1,0,7,0,0,0.016,0,2,0,3.189,42,5.093,5.054,0,0,4469048,0,0
3,1711001950006,21/03/2024 11:49:10.006,91.6667,3483,-40.682,50.985,7,29,1,0,0,0,0,0,0,0,0,1,0,0,0,0,0,0,0,0,0,0,5.1,37.5,30.0,3.5,0,3869946,2,3.187,59,0,0,40,40,0,0,3.186,16,,0,,25,0,0,3.175,3.187,0,3.177,1,42,0,41,0,3.188,60,0,0,1,0,0,256,,39,,2,0,,0,3.187,5718322,40,0,0,1,0,1711001950006,20000,,12337,3.189,0,0,0,0,4,0,12853,4215.196,0,3.175,3.189,3354936,24117,3.188,0,2,3.188,3.191,0,0,3.3,0,2901.26,11.489,37.2,,,0,38,0,89,42,3.191,0,,1,9,,12.488,0,130,40,0,,38,3.191,71177,,3.186,58,,0,3.185,4272433,0,22,1,0,3.189,,1,0,7,0,0,0.016,0,2,0,3.188,42,5.116,5.1,0,0,4469048,0,0
3,1711001946880,21/03/2024 11:49:06.880,95.8333,3524,-15.541,51.367,6,29,1,0,0,0,0,0,0,0,0,1,0,0,0,0,0,0,0,0,0,0,5.2,12.9,28.6,3.4,0,3869928,2,3.212,59,0,0,40,40,0,0,3.21,16,1,0,20,28,0,0,3.199,3.211,0,3.206,1,42,0,41,0,3.213,60,0,0,1,0,0,256,,39,0,2,0,0,0,3.21,5718322,40,0,0,1,0,1711001946880,20000,,12337,3.211,0,0,0,0,4,0,12853,4215.196,0,3.199,3.213,3354936,23040,3.21,0,2,3.211,3.214,0,0,3.298,0,2905.8,11.507,37.2,,2,0,38,0,89,42,3.215,0,105,1,13,,12.42,0,130,40,0,0,38,3.215,71243,2880,3.211,58,1,0,3.21,4272433,0,23,1,0,3.211,0,1,0,7,0,0,0.016,0,2,0,3.21,42,5.108,5.098,0,0,4469048,0,0
3,1711001943740,21/03/2024 11:49:03.740,95.8333,3488,-22.6,51.334,6,29,1,0,0,0,0,0,0,0,0,1,0,0,0,0,0,0,0,0,0,0,5.2,22.0,15.2,4.0,0,3869913,2,3.207,59,0,0,40,40,0,0,3.208,8,1,0,20,28,0,0,3.198,3.208,0,3.198,1,42,0,41,0,3.209,60,0,0,1,0,0,256,,39,0,2,0,0,0,3.212,5718322,40,0,0,1,0,1711001943740,20000,,12337,3.207,0,0,0,0,4,0,12853,4215.196,0,3.199,3.21,3354936,21935,3.21,0,2,3.209,3.211,0,0,3.298,0,2909.59,11.522,37.2,,2,0,38,0,89,42,3.213,0,105,1,13,,12.475,0,130,40,0,0,38,3.213,71296,2880,3.211,58,1,0,3.211,4272433,0,23,1,0,3.209,0,1,0,7,0,0,0.015,0,2,0,3.21,42,5.113,5.098,0,0,4469048,0,0
3,1711001940590,21/03/2024 11:49:00.590,95.8333,3536,-23.343,51.248,4,29,1,0,0,0,0,0,0,0,0,1,0,0,0,0,0,0,0,0,0,0,5.2,20.8,21.7,3.6,0,3869905,2,3.204,59,0,0,40,40,0,0,3.203,16,1,0,20,28,0,0,3.192,3.204,0,3.196,1,42,0,41,0,3.205,60,0,0,1,0,0,256,,39,0,2,0,0,0,3.202,5718322,40,0,0,1,0,1711001940590,20000,,12337,3.205,0,0,0,0,4,0,12853,4215.196,0,3.192,3.205,3354936,20855,3.203,0,2,3.205,3.206,0,0,3.278,0,2911.61,11.53,37.2,,2,0,38,0,89,42,3.207,0,105,1,13,,12.398,0,130,40,0,0,38,3.207,71327,2880,3.203,58,1,0,3.204,4272433,0,23,1,0,3.204,0,1,0,7,0,0,0.015,0,2,0,3.203,42,5.093,5.058,0,0,4469048,0,0
3,1711001937429,21/03/2024 11:48:57.429,91.6667,3538,-15.843,51.301,4,29,1,0,0,0,0,0,0,0,0,1,0,0,0,0,0,0,0,0,0,0,5.2,12.8,28.2,3.2,0,3869896,2,3.209,59,0,0,40,40,0,0,3.206,16,,0,,22,0,0,3.195,3.209,0,3.2,1,42,0,41,0,3.207,60,0,0,1,0,0,256,,39,,2,0,,0,3.206,5718322,40,0,0,1,0,1711001937429,20000,,12337,3.208,0,0,0,0,4,0,12853,4215.196,0,3.195,3.208,3354936,19745,3.207,0,2,3.207,3.209,0,0,3.279,0,2913.88,11.539,37.2,,,0,38,0,89,42,3.21,0,,1,13,,12.394,0,130,40,0,,38,3.21,71358,,3.207,59,,0,3.206,4272433,0,22,1,0,3.207,,1,0,7,0,0,0.015,0,2,0,3.206,42,5.093,5.058,0,0,4469048,0,0
3,1711001934260,21/03/2024 11:48:54.260,25.0,3571,,,3,,,,,,,,,,,,0,0,0,0,0,0,0,0,0,0,5.2,13.6,24.6,3.5,,,,3.207,,0,,,,0,,,,,,,6,,,,3.206,,,,,,,0,,,,,1,,,256,,,,2,0,,,,,,0,,,,1711001934260,,,,,,,,,,,,,0,,,,18639,3.206,,,,,,0,,,,,,,,,,,,,,0,,1,,,,0,,40,,,,,,,,,,,,,,6,,0,3.206,,,0,,,0,,,,,,,,,,0,,,
3,1711001931114,21/03/2024 11:48:51.114,95.8333,3602,-17.79,51.209,4,29,1,0,0,0,0,0,0,0,0,1,0,0,0,0,0,0,0,0,0,0,5.2,15.0,33.1,3.4,0,3869869,2,3.202,59,0,0,40,40,0,0,3.2,16,1,0,20,23,0,0,3.191,3.202,0,3.195,1,42,0,41,0,3.202,60,0,0,1,0,0,256,,39,0,2,0,0,0,3.2,5718322,40,0,0,1,0,1711001931114,20000,,12337,3.201,0,0,0,0,4,0,12853,4215.196,0,3.191,3.202,3354936,17557,3.2,0,2,3.202,3.204,0,0,3.295,0,2920.7,11.566,37.2,,2,0,38,0,89,42,3.204,0,105,1,9,,12.386,0,130,40,0,0,38,3.204,71458,2880,3.201,59,1,0,3.201,4272433,0,23,1,0,3.201,0,1,0,7,0,0,0.013,0,2,0,3.201,42,5.095,5.054,0,0,4469048,0,0
3,1711001927861,21/03/2024 11:48:47.861,95.8333,3553,-34.306,50.939,9,29,1,0,0,0,0,0,0,0,0,1,0,0,0,0,0,0,0,0,0,0,5.1,32.7,42.6,3.3,0,3869842,2,3.185,59,0,0,40,40,0,0,3.183,16,1,0,20,24,0,0,3.173,3.184,0,3.175,1,42,0,41,0,3.186,60,0,0,1,0,0,256,,39,0,2,0,0,0,3.183,5718322,40,0,0,1,0,1711001927861,20000,,12337,3.186,0,0,0,0,4,0,12853,4215.196,0,3.173,3.186,3354936,16441,3.185,0,2,3.185,3.187,0,0,3.272,0,2927.52,11.593,37.2,,2,0,38,0,89,42,3.189,0,105,1,13,,12.39,0,130,40,0,0,38,3.189,71556,2880,3.184,59,1,0,3.182,4272433,0,23,1,0,3.185,0,1,0,7,0,0,0.016,0,2,0,3.184,42,5.088,5.058,0,0,4469048,0,0
3,1711001924740,21/03/2024 11:48:44.740,91.6667,3417,-30.772,51.035,9,29,1,0,0,0,0,0,0,0,0,1,0,0,0,0,0,0,0,0,0,0,5.1,31.1,28.0,3.7,0,3869812,2,3.191,59,0,0,40,40,0,0,3.189,16,,0,,27,0,0,3.18,3.189,0,3.181,1,42,0,41,0,3.192,60,0,0,1,0,0,256,,39,,2,0,,0,3.19,5718322,40,0,0,1,0,1711001924740,20000,,12337,3.192,0,0,0,0,4,0,12853,4215.196,0,3.18,3.192,3354936,15343,3.189,0,2,3.191,3.194,0,0,3.288,0,2935.1,11.623,37.2,,,0,38,0,89,42,3.194,0,,1,9,,12.381,0,130,40,0,,38,3.194,71665,,3.189,58,,0,3.189,4272433,0,22,1,0,3.191,,1,0,7,0,0,0.014,0,2,0,3.191,42,5.095,5.054,0,0,4469048,0,0
3,1711001921580,21/03/2024 11:48:41.580,95.8333,3441,-35.36,50.975,8,29,1,0,0,0,0,0,0,0,0,1,0,0,0,0,0,0,0,0,0,0,5.1,33.4,35.8,3.5,0,3869787,2,3.187,59,0,0,40,40,0,0,3.185,16,1,0,20,28,0,0,3.175,3.186,0,3.177,1,42,0,41,0,3.188,60,0,0,1,0,0,256,,39,0,2,0,0,0,3.185,5718322,40,0,0,1,0,1711001921580,20000,,12337,3.187,0,0,0,0,4,0,12853,4215.196,0,3.175,3.189,3354936,14263,3.187,0,2,3.187,3.19,0,0,3.289,0,2941.41,11.648,37.2,,2,0,38,0,89,42,3.19,0,105,1,9,,12.449,0,130,40,0,0,38,3.19,71756,2880,3.186,58,1,0,3.186,4272433,0,23,1,0,3.188,0,1,0,7,0,0,0.015,0,2,0,3.187,42,5.105,5.082,0,0,4469048,0,0
3,1711001918360,21/03/2024 11:48:38.360,20.8333,3493,,,9,,,,,,,,,,,,0,0,0,0,0,0,0,0,0,0,5.1,37.4,35.9,3.4,,,,,,0,,,,0,,,,,,,5,,,,,,,,,,,0,,,,,1,,,256,,,,2,0,,,,,,0,,,,1711001918360,,,,,,,,,,,,,0,,,,13120,,,,,,,0,,,,,,,,,,,,,,0,,1,,,,0,,40,,,,,,,,,,,,,,5,,0,,,,0,,,0,,,,,,,,,,0,,,
3,1711001915240,21/03/2024 11:48:35.240,20.8333,3576,,,7,,,,,,,,,,,,0,0,0,0,0,0,0,0,0,0,5.1,24.8,30.6,3.6,,,,,,0,,,,0,,,,,,,5,,,,,,,,,,,0,,,,,1,,,256,,,,2,0,,,,,,0,,,,1711001915240,,,,,,,,,,,,,0,,,,12045,,,,,,,0,,,,,,,,,,,,,,0,,1,,,,0,,40,,,,,,,,,,,,,,5,,0,,,,0,,,0,,,,,,,,,,0,,,
3,1711001912127,21/03/2024 11:48:32.127,95.8333,3662,-20.039,51.224,5,29,1,0,0,0,0,0,0,0,0,1,0,0,0,0,0,0,0,0,0,0,5.2,17.1,38.5,3.3,0,3869709,2,3.203,59,0,0,40,40,0,0,3.201,16,1,0,20,28,0,0,3.191,3.202,0,3.195,1,42,0,41,0,3.204,60,0,0,1,0,0,256,,39,0,2,0,0,0,3.201,5718322,40,0,0,1,0,1711001912127,20000,,12337,3.203,0,0,0,0,4,0,12853,4215.196,0,3.191,3.204,3354936,10970,3.202,0,2,3.203,3.204,0,0,3.296,0,2961.11,11.726,37.2,,2,0,38,0,89,42,3.205,0,105,1,13,,12.39,0,130,40,0,0,38,3.205,72039,2880,3.202,58,1,0,3.202,4272433,0,23,1,0,3.202,0,1,0,7,0,0,0.014,0,2,0,3.201,42,5.098,5.054,0,0,4469048,0,0
3,1711001908920,21/03/2024 11:48:28.920,95.8333,3666,-23.573,51.182,8,29,1,0,0,0,0,0,0,0,0,1,0,0,0,0,0,0,0,0,0,0,5.2,21.2,41.5,3.4,0,3869685,2,3.2,59,0,0,40,40,0,0,3.198,16,1,0,20,28,0,0,3.189,3.2,0,3.192,1,42,0,41,0,3.201,60,0,0,1,0,0,256,,39,0,2,0,0,0,3.199,5718322,40,0,0,1,0,1711001908920,20000,,12337,3.201,0,0,0,0,4,0,12853,4215.196,0,3.189,3.201,3354936,9860,3.198,0,2,3.2,3.202,0,0,3.299,0,2967.17,11.75,37.2,,2,0,38,0,89,42,3.203,0,105,1,13,,12.386,0,130,40,0,0,38,3.203,72126,2880,3.199,58,1,0,3.198,4272433,0,23,1,0,3.199,0,1,0,7,0,0,0.014,0,2,0,3.2,42,5.105,5.063,0,0,4469048,0,0
3,1711001905771,21/03/2024 11:48:25.771,91.6667,3579,-25.752,51.17,5,29,1,0,0,0,0,0,0,0,0,1,0,0,0,0,0,0,0,0,0,0,5.2,23.9,28.6,3.5,0,3869659,2,3.2,59,0,0,40,40,0,0,3.198,16,,0,,27,0,0,3.187,3.199,0,3.191,1,42,0,41,0,3.2,60,0,0,1,0,0,256,,39,,2,0,,0,3.198,5718322,40,0,0,1,0,1711001905771,20000,,12337,3.2,0,0,0,0,4,0,12853,4215.196,0,3.187,3.201,3354936,8779,3.198,0,2,3.199,3.202,0,0,3.299,0,2973.73,11.776,37.2,,,0,38,0,89,42,3.202,0,,1,9,,12.42,0,130,40,0,,38,3.202,72221,,3.198,58,,0,3.197,4272433,0,22,1,0,3.199,,1,0,7,0,0,0.015,0,2,0,3.199,42,5.108,5.072,0,0,4469048,0,0
3,1711001902560,21/03/2024 11:48:22.560,91.6667,3543,-11.264,51.368,1,29,1,0,0,0,0,0,0,0,0,1,0,0,0,0,0,0,0,0,0,0,5.2,8.5,28.5,3.2,0,3869645,2,3.213,59,0,0,40,40,0,0,3.21,16,,0,,25,0,0,3.2,3.211,0,3.206,1,42,0,41,0,3.212,60,0,0,1,0,0,256,,39,,2,0,,0,3.211,5718322,40,0,0,1,0,1711001902560,20000,,12337,3.21,0,0,0,0,4,0,12853,4215.196,0,3.2,3.211,3354936,7667,3.211,0,2,3.212,3.213,0,0,3.299,0,2977.27,11.79,37.2,,,0,38,0,89,42,3.214,0,,1,13,,12.488,0,130,40,0,,38,3.214,72271,,3.211,59,,0,3.21,4272433,0,22,1,0,3.212,,1,0,7,0,0,0.014,0,2,0,3.211,42,5.116,5.098,0,0,4469048,0,0
3,1711001899440,21/03/2024 11:48:19.440,91.6667,3500,-15.24,51.351,4,29,1,0,0,0,0,0,0,0,0,1,0,0,0,0,0,0,0,0,0,0,5.2,13.9,22.0,3.8,0,3869630,2,3.21,59,0,0,40,40,0,0,3.209,16,,0,,27,0,0,3.199,3.211,0,3.206,1,42,0,41,0,3.211,60,0,0,1,0,0,256,,39,,2,0,,0,3.209,5718322,40,0,0,1,0,1711001899440,20000,,12337,3.21,0,0,0,0,4,0,12853,4215.196,0,3.199,3.212,3354936,6565,3.209,0,2,3.211,3.212,0,0,3.285,0,2981.06,11.805,37.2,,,0,38,0,89,42,3.213,0,,1,13,,12.432,0,130,40,0,,38,3.213,72326,,3.209,59,,0,3.21,4272433,0,22,1,0,3.21,,1,0,7,0,0,0.014,0,2,0,3.209,42,5.098,5.075,0,0,4469048,0,0
3,1711001896240,21/03/2024 11:48:16.240,20.8333,3492,,,4,,,,,,,,,,,,0,0,0,0,0,0,0,0,0,0,5.2,16.2,25.1,3.6,,,,,,0,,,,0,,,,,,,5,,,,,,,,,,,0,,,,,1,,,256,,,,2,0,,,,,,0,,,,1711001896240,,,,,,,,,,,,,0,,,,5452,,,,,,,0,,,,,,,,,,,,,,0,,1,,,,0,,40,,,,,,,,,,,,,,5,,0,,,,0,,,0,,,,,,,,,,0,,,
3,1711001893067,21/03/2024 11:48:13.067,20.8333,3540,,,3,,,,,,,,,,,,0,0,0,0,0,0,0,0,0,0,5.2,25.1,27.2,3.4,,,,,,0,,,,0,,,,,,,5,,,,,,,,,,,0,,,,,1,,,256,,,,2,0,,,,,,0,,,,1711001893067,,,,,,,,,,,,,0,,,,4342,,,,,,,0,,,,,,,,,,,,,,0,,1,,,,0,,40,,,,,,,,,,,,,,5,,0,,,,0,,,0,,,,,,,,,,0,,,
3,1711001889920,21/03/2024 11:48:09.920,95.8333,3574,-26.124,51.118,8,29,1,0,0,0,0,0,0,0,0,1,0,0,0,0,0,0,0,0,0,0,5.2,24.1,29.7,3.4,0,3869579,2,3.195,59,0,0,40,40,0,0,3.194,16,1,0,20,28,0,0,3.184,3.195,0,3.189,1,42,0,41,0,3.197,60,0,0,1,0,0,256,,39,0,2,0,0,0,3.194,5718322,40,0,0,1,0,1711001889920,20000,,12337,3.197,0,0,0,0,4,0,12853,4215.196,0,3.184,3.197,3354936,3267,3.194,0,2,3.196,3.199,0,0,3.286,0,2993.93,11.856,37.2,,2,0,38,0,89,42,3.199,0,105,1,9,,12.386,0,130,40,0,0,38,3.199,72512,2880,3.196,59,1,0,3.195,4272433,0,23,1,0,3.195,0,1,0,7,0,0,0.015,0,2,0,3.196,42,5.093,5.058,0,0,4469048,0,0
3,1711001886801,21/03/2024 11:48:06.801,91.6667,3438,-6.385,51.408,2,29,1,0,0,0,0,0,0,0,0,1,0,0,0,0,0,0,0,0,0,0,5.2,5.5,27.8,3.8,0,3869563,2,3.214,59,0,0,40,40,0,0,3.213,16,,0,,22,0,0,3.203,3.214,0,3.209,1,42,0,41,0,3.215,60,0,0,1,0,0,256,,39,,2,0,,0,3.214,5718322,40,0,0,1,0,1711001886801,20000,,12337,3.213,0,0,0,0,4,0,12853,4215.196,0,3.203,3.214,3354936,2187,3.212,0,2,3.214,3.217,0,0,3.3,0,2997.97,11.872,37.2,,,0,38,0,89,42,3.217,0,,1,9,,12.488,0,130,40,0,,38,3.216,72569,,3.213,59,,0,3.214,4272433,0,22,1,0,3.213,,1,0,7,0,0,0.014,0,2,0,3.213,42,5.116,5.1,0,0,4469048,0,0
3,1711001883660,21/03/2024 11:48:03.660,54.1667,3412,-21.545,51.137,2,30,,,,,,,,,,,0,0,0,0,0,0,0,0,0,0,5.2,20.4,21.2,3.2,,,,3.198,,0,,,,0,,3.196,16,,,,13,,,3.186,3.197,,3.19,,,,,0,3.199,,,,1,,,256,,,,2,0,,,3.194,,,0,,,,1711001883660,,,,3.198,,,,,4,,,,0,3.186,3.199,,1091,3.196,,2,3.197,3.2,,0,,,,11.89,,,,,,,89,,3.2,0,,1,9,,,0,130,40,,,38,3.199,,,3.196,60,,,3.197,,,13,,0,3.196,,,0,7,,0,0.014,,,,3.195,42,,,,0,,,
3,1711001880545,21/03/2024 11:48:00.545,91.6667,3472,-2.781,51.362,2,30,1,0,0,0,0,0,0,0,0,1,0,0,0,0,0,0,0,0,0,0,5.2,0.1,28.9,3.3,0,3869538,2,3.213,59,0,0,40,40,0,0,3.21,16,,0,,27,0,0,3.201,3.212,0,3.208,1,42,0,41,0,3.212,60,0,0,1,0,0,256,,39,,2,0,,0,3.21,5718322,39,0,0,1,0,1711001880545,20000,,12337,3.21,0,0,0,0,4,0,12853,4215.196,0,3.201,3.211,3354936,65534,3.21,0,2,3.211,3.212,0,0,3.3,0,3004.29,11.897,37.2,,,0,38,0,89,42,3.213,0,,1,2,,12.458,0,130,40,0,,38,3.213,72600,,3.21,59,,0,3.21,4272433,0,22,1,0,3.209,,1,0,7,0,0,0.012,0,2,0,3.21,42,5.111,5.096,0,0,4469048,0,0
3,1711001877220,21/03/2024 11:47:57.220,91.6667,3471,-27.328,50.918,7,30,1,0,0,0,0,0,0,0,0,1,0,0,0,0,0,0,0,0,0,0,5.1,24.6,38.8,3.2,0,3869519,2,3.185,59,0,0,40,40,0,0,3.182,16,,0,,22,0,0,3.172,3.185,0,3.173,1,42,0,41,0,3.184,60,0,0,1,0,0,256,,39,,2,0,,0,3.182,5718322,39,0,0,1,0,1711001877220,20000,,12337,3.183,0,0,0,0,4,0,12853,4215.196,0,3.172,3.185,3354936,64391,3.182,0,2,3.184,3.186,0,0,3.298,0,3009.09,11.916,37.2,,,0,38,0,89,42,3.187,0,,1,13,,12.479,0,130,40,0,,38,3.187,72600,,3.183,60,,0,3.181,4272433,0,22,1,0,3.185,,1,0,7,0,0,0.015,0,2,0,3.181,42,5.116,5.096,0,0,4469048,0,0
3,1711001874000,21/03/2024 11:47:54.000,91.6667,3462,-49.547,50.573,11,30,1,0,0,0,0,0,0,0,0,1,0,0,0,0,0,0,0,0,0,0,5.1,47.7,48.4,3.3,0,3869477,2,3.162,59,0,0,40,40,0,0,3.16,8,,0,,27,0,0,3.147,3.162,0,3.147,1,42,0,41,0,3.163,60,0,0,1,0,0,256,,39,,2,0,,0,3.16,5718322,39,0,0,1,0,1711001874000,20000,,12337,3.163,0,0,0,0,4,0,12853,4215.196,0,3.15,3.163,3354936,63281,3.161,0,2,3.164,3.166,0,0,3.285,0,3019.69,11.958,37.2,,,0,38,0,89,42,3.166,0,,1,9,,12.39,0,130,40,0,,38,3.166,72600,,3.162,60,,0,3.159,4272433,0,22,1,0,3.163,,1,0,7,0,0,0.019,0,2,0,3.162,42,5.09,5.054,0,0,4469048,0,0
3,1711001870840,21/03/2024 11:47:50.840,91.6667,3474,-40.682,50.743,11,30,1,0,0,0,0,0,0,0,0,1,0,0,0,0,0,0,0,0,0,0,5.1,40.7,47.7,3.5,0,3869440,2,3.173,59,0,0,40,40,0,0,3.171,8,,0,,27,0,0,3.16,3.171,0,3.16,1,42,0,41,0,3.174,60,0,0,1,0,0,256,,39,,2,0,,0,3.171,5718322,39,0,0,1,0,1711001870840,20000,,12337,3.174,0,0,0,0,4,0,12853,4215.196,0,3.163,3.173,3354936,62176,3.173,0,2,3.174,3.175,0,0,3.298,0,3029.04,11.995,37.2,,,0,38,0,89,42,3.176,0,,1,13,,12.488,0,130,40,0,,38,3.176,72600,,3.172,60,,0,3.168,4272433,0,22,1,0,3.173,,1,0,7,0,0,0.016,0,2,0,3.173,42,5.118,5.093,0,0,4469048,0,0
3,1711001867580,21/03/2024 11:47:47.580,91.6667,3457,-69.808,50.329,14,30,1,0,0,0,0,0,0,0,0,1,0,0,0,0,0,0,0,0,0,0,5.0,67.2,56.4,3.5,0,3869387,2,3.149,59,0,0,40,40,0,0,3.145,8,,0,,27,0,0,3.128,3.147,0,3.128,1,42,0,41,0,3.147,60,0,0,1,0,0,256,,39,,2,0,,0,3.144,5718322,39,0,0,1,0,1711001867580,20000,,12337,3.15,0,0,0,0,4,0,12853,4215.196,0,3.136,3.149,3354936,61061,3.146,0,2,3.149,3.151,0,0,3.293,0,3042.42,12.048,37.2,,,0,38,0,89,42,3.151,0,,1,9,,12.381,0,130,40,0,,38,3.151,72600,,3.145,60,,0,3.142,4272433,0,22,1,0,3.149,,1,0,7,0,0,0.023,0,2,0,3.146,42,5.093,5.049,0,0,4469048,0,0
3,1711001864360,21/03/2024 11:47:44.360,91.6667,3425,-44.667,50.757,12,30,1,0,0,0,0,0,0,0,0,1,0,0,0,0,0,0,0,0,0,0,5.1,42.8,48.2,3.4,0,3869338,2,3.175,59,0,0,40,40,0,0,3.172,8,,0,,25,0,0,3.161,3.173,0,3.161,1,42,0,41,0,3.175,60,0,0,1,0,0,256,,39,,2,0,,0,3.171,5718322,39,0,0,1,0,1711001864360,20000,,12337,3.174,0,0,0,0,4,0,12853,4215.196,0,3.163,3.176,3354936,59949,3.171,0,2,3.174,3.177,0,0,3.3,0,3054.79,12.097,37.2,,,0,38,0,89,42,3.178,0,,1,13,,12.475,0,130,40,0,,38,3.178,72600,,3.172,59,,0,3.171,4272433,0,22,1,0,3.174,,1,0,7,0,0,0.017,0,2,0,3.172,42,5.116,5.098,0,0,4469048,0,0
3,1711001861240,21/03/2024 11:47:41.240,95.8333,3437,-37.68,50.924,9,30,1,0,0,0,0,0,0,0,0,1,0,0,0,0,0,0,0,0,0,0,5.1,36.4,28.6,3.6,0,3869302,2,3.184,59,0,0,40,40,0,0,3.182,16,1,0,20,28,0,0,3.173,3.183,0,3.174,1,42,0,41,0,3.185,60,0,0,1,0,0,256,,39,0,2,0,0,0,3.183,5718322,39,0,0,1,0,1711001861240,20000,,12337,3.184,0,0,0,0,4,0,12853,4215.196,0,3.173,3.185,3354936,58844,3.183,0,2,3.185,3.188,0,0,3.271,0,3063.88,12.133,37.2,,2,0,38,0,89,42,3.188,0,105,1,9,,12.39,0,130,40,0,0,38,3.187,72600,2880,3.182,59,1,0,3.182,4272433,0,23,1,0,3.183,0,1,0,7,0,0,0.015,0,2,0,3.183,42,5.085,5.056,0,0,4469048,0,0
3,1711001858100,21/03/2024 11:47:38.100,91.6667,3517,-31.605,50.976,8,30,1,0,0,0,0,0,0,0,0,1,0,0,0,0,0,0,0,0,0,0,5.2,29.8,38.4,3.5,0,3869278,2,3.188,59,0,0,40,40,0,0,3.186,16,,0,,22,0,0,3.176,3.187,0,3.177,1,42,0,41,0,3.188,60,0,0,1,0,0,256,,38,,2,0,,0,3.185,5718322,39,0,0,1,0,1711001858100,20000,,12337,3.188,0,0,0,0,4,0,12853,4215.196,0,3.176,3.189,3354936,57763,3.186,0,2,3.188,3.189,0,0,3.301,0,3069.94,12.157,37.2,,,0,38,0,89,42,3.191,0,,1,13,,12.488,0,130,40,0,,38,3.191,72600,,3.186,59,,0,3.186,4272433,0,22,1,0,3.187,,1,0,1,0,0,0.015,0,2,0,3.185,42,5.121,5.1,0,0,4469048,0,0
3,1711001854860,21/03/2024 11:47:34.860,20.8333,3486,,,8,,,,,,,,,,,,0,0,0,0,0,0,0,0,0,0,5.1,31.6,35.7,3.4,,,,,,0,,,,0,,,,,,,5,,,,,,,,,,,0,,,,,1,,,256,,,,2,0,,,,,,0,,,,1711001854860,,,,,,,,,,,,,0,,,,56624,,,,,,,0,,,,,,,,,,,,,,0,,1,,,,0,,40,,,,,,,,,,,,,,5,,0,,,,0,,,0,,,,,,,,,,0,,,
3,1711001851680,21/03/2024 11:47:31.680,91.6667,3503,-32.951,50.917,8,30,1,0,0,0,0,0,0,0,0,1,0,0,0,0,0,0,0,0,0,0,5.1,32.4,36.9,3.3,0,3869211,2,3.184,59,0,0,40,40,0,0,3.182,16,,0,,27,0,0,3.172,3.184,0,3.173,1,41,0,40,0,3.184,60,0,0,1,0,0,256,,38,,2,0,,0,3.182,5718322,39,0,0,1,0,1711001851680,20000,,12337,3.185,0,0,0,0,4,0,12853,4215.196,0,3.172,3.186,3354936,55544,3.182,0,5,3.183,3.186,0,0,3.299,0,3086.86,12.224,37.2,,,0,38,0,89,42,3.187,0,,1,13,,12.488,0,130,40,0,,38,3.187,72600,,3.182,59,,0,3.181,4272433,0,22,1,0,3.183,,1,0,1,0,0,0.015,0,2,0,3.183,42,5.116,5.1,0,0,4469048,0,0
3,1711001848503,21/03/2024 11:47:28.503,91.6667,3479,-31.676,50.978,11,30,1,0,0,0,0,0,0,0,0,1,0,0,0,0,0,0,0,0,0,0,5.2,30.1,43.8,3.5,0,3869183,2,3.188,59,0,0,40,40,0,0,3.186,16,,0,,22,0,0,3.176,3.187,0,3.179,1,41,0,40,0,3.188,60,0,0,1,0,0,256,,38,,2,0,,0,3.186,5718322,39,0,0,1,0,1711001848503,20000,,12337,3.188,0,0,0,0,4,0,12853,4215.196,0,3.176,3.189,3354936,54434,3.185,0,5,3.188,3.189,0,0,3.299,0,3093.93,12.252,37.2,,,0,38,0,89,42,3.191,0,,1,13,,12.386,0,130,40,0,,38,3.191,72600,,3.186,59,,0,3.185,4272433,0,22,1,0,3.187,,1,0,1,0,0,0.015,0,2,0,3.186,42,5.105,5.061,0,0,4469048,0,0
3,1711001845260,21/03/2024 11:47:25.260,91.6667,3460,-43.011,50.74,8,31,1,0,0,0,0,0,0,0,0,1,0,0,0,0,0,0,0,0,0,0,5.1,43.2,49.2,3.2,0,3869146,2,3.173,59,0,0,40,40,0,0,3.171,8,,0,,27,0,0,3.16,3.171,0,3.16,1,41,0,40,0,3.174,60,0,0,1,0,0,256,,38,,2,0,,0,3.172,5718322,39,0,0,1,0,1711001845260,20000,,12337,3.173,0,0,0,0,4,0,12853,4215.196,0,3.162,3.174,3354936,53372,3.171,0,5,3.174,3.176,0,0,3.298,0,3103.28,12.289,37.2,,,0,38,0,89,42,3.176,0,,1,9,,12.479,0,130,40,0,,38,3.176,72600,,3.172,59,,0,3.169,4272433,0,22,1,0,3.172,,1,0,1,0,0,0.016,0,2,0,3.171,42,5.118,5.093,0,0,4469048,0,0
3,1711001842100,21/03/2024 11:47:22.100,95.8333,3495,-47.82,50.73,12,31,1,0,0,0,0,0,0,0,0,1,0,0,0,0,0,0,0,0,0,0,5.1,45.9,57.5,3.2,0,3869104,2,3.172,59,0,0,40,40,0,0,3.17,8,1,0,20,28,0,0,3.157,3.172,0,3.157,1,41,0,40,0,3.174,60,0,0,1,0,0,256,,38,0,2,0,0,0,3.169,5718322,39,0,0,1,0,1711001842100,20000,,12337,3.173,0,0,0,0,4,0,12853,4215.196,0,3.161,3.174,3354936,52260,3.171,0,5,3.173,3.175,0,0,3.298,0,3113.88,12.331,37.2,,2,0,38,0,89,42,3.175,0,105,1,9,,12.394,0,130,40,0,0,38,3.175,72600,2880,3.171,59,1,0,3.169,4272433,0,23,1,0,3.173,0,1,0,1,0,0,0.018,0,2,0,3.171,42,5.098,5.056,0,0,4469048,0,0
3,1711001838860,21/03/2024 11:47:18.860,29.1667,3498,,,12,,,,,,,,,,,,0,0,0,0,0,0,0,0,0,0,5.1,54.4,38.0,3.7,,,,3.172,,0,,,,0,,,,1,,20,7,,,,3.171,,,,,,,0,,,,,1,,,256,,,0,2,0,0,,,,,0,,,,1711001838860,,,,,,,,,,,,,0,,,,51123,3.169,,,,,,0,,,,,,,2,,,,,,,0,105,1,,,,0,,40,,0,,,,2880,,,1,,,,,7,,0,3.171,0,,0,,,0,,,,,,,,,,0,,,
3,1711001835700,21/03/2024 11:47:15.700,95.8333,3485,-21.997,51.24,6,31,1,0,0,0,0,0,0,0,0,1,0,0,0,0,0,0,0,0,0,0,5.2,20.1,27.9,3.5,0,3869021,2,3.204,59,0,0,40,40,0,0,3.202,16,1,0,20,23,0,0,3.193,3.204,0,3.196,1,41,0,40,0,3.204,60,0,0,1,0,0,256,,38,0,2,0,0,0,3.202,5718322,39,0,0,1,0,1711001835700,20000,,12337,3.204,0,0,0,0,4,0,12853,4215.196,0,3.193,3.205,3354936,50040,3.203,0,5,3.204,3.205,0,0,3.3,0,3134.84,12.414,37.2,,2,0,38,0,89,42,3.207,0,105,1,13,,12.479,0,130,40,0,0,38,3.207,72600,2880,3.202,59,1,0,3.202,4272433,0,23,1,0,3.203,0,1,0,1,0,0,0.014,0,2,0,3.202,42,5.116,5.1,0,0,4469048,0,0
3,1711001832520,21/03/2024 11:47:12.520,91.6667,3470,-30.18,51.097,6,31,1,0,0,0,0,0,0,0,0,1,0,0,0,0,0,0,0,0,0,0,5.1,27.8,33.9,3.5,0,3868997,2,3.195,59,0,0,40,40,0,0,3.193,16,,0,,27,0,0,3.183,3.195,0,3.185,1,41,0,40,0,3.195,60,0,0,1,0,0,256,,38,,2,0,,0,3.193,5718322,39,0,0,1,0,1711001832520,20000,,12337,3.196,0,0,0,0,4,0,12853,4215.196,0,3.183,3.195,3354936,48935,3.194,0,5,3.196,3.197,0,0,3.294,0,3140.9,12.438,37.2,,,0,38,0,89,42,3.198,0,,1,13,,12.471,0,130,40,0,,38,3.198,72600,,3.194,59,,0,3.193,4272433,0,22,1,0,3.195,,1,0,1,0,0,0.015,0,2,0,3.193,42,5.111,5.089,0,0,4469048,0,0
3,1711001829220,21/03/2024 11:47:09.220,20.8333,3492,,,6,,,,,,,,,,,,0,0,0,0,0,0,0,0,0,0,5.1,31.0,41.5,3.4,,,,,,0,,,,0,,,,,,,5,,,,,,,,,,,0,,,,,1,,,256,,,,2,0,,,,,,0,,,,1711001829220,,,,,,,,,,,,,0,,,,47794,,,,,,,0,,,,,,,,,,,,,,0,,1,,,,0,,40,,,,,,,,,,,,,,5,,0,,,,0,,,0,,,,,,,,,,0,,,
3,1711001826041,21/03/2024 11:47:06.041,91.6667,3500,-46.465,50.862,9,31,1,0,0,0,0,0,0,0,0,1,0,0,0,0,0,0,0,0,0,0,5.1,46.9,32.7,3.7,0,3868941,2,3.18,59,0,0,40,39,0,0,3.178,8,,0,,27,0,0,3.167,3.18,0,3.167,1,41,0,40,0,3.18,60,0,0,1,0,0,256,,38,,2,0,,0,3.178,5718322,39,0,0,1,0,1711001826041,20000,,12337,3.183,0,0,0,0,4,0,12853,4215.196,0,3.169,3.181,3354936,46682,3.179,0,5,3.182,3.183,0,0,3.301,0,3155.05,12.494,37.2,,,0,38,0,89,42,3.184,0,,1,13,,12.479,0,130,40,0,,38,3.184,72600,,3.178,59,,0,3.177,4272433,0,22,1,0,3.181,,1,0,1,0,0,0.017,0,2,0,3.18,42,5.113,5.103,0,0,4469048,0,0
3,1711001822880,21/03/2024 11:47:02.880,95.8333,3525,-30.772,51.131,10,31,1,0,0,0,0,0,0,0,0,1,0,0,0,0,0,0,0,0,0,0,5.1,29.8,30.9,3.7,0,3868916,2,3.197,59,0,0,40,39,0,0,3.195,16,1,0,20,28,0,0,3.185,3.195,0,3.189,1,41,0,40,0,3.199,60,0,0,1,0,0,256,,38,0,2,0,0,0,3.196,5718322,39,0,0,1,0,1711001822880,20000,,12337,3.197,0,0,0,0,4,0,12853,4215.196,0,3.185,3.199,3354936,45603,3.195,0,5,3.198,3.2,0,0,3.293,0,3161.36,12.519,37.2,,2,0,38,0,89,42,3.2,0,105,1,9,,12.39,0,130,40,0,0,38,3.2,72600,2880,3.195,59,1,0,3.195,4272433,0,23,1,0,3.195,0,1,0,1,0,0,0.015,0,2,0,3.196,42,5.098,5.054,0,0,4469048,0,0
3,1711001819681,21/03/2024 11:46:59.681,91.6667,3676,-39.708,50.949,6,31,1,0,0,0,0,0,0,0,0,1,0,0,0,0,0,0,0,0,0,0,5.1,36.9,40.7,3.5,0,3868883,2,3.185,59,0,0,40,39,0,0,3.184,8,,0,,27,0,0,3.174,3.185,0,3.174,1,41,0,40,0,3.185,60,0,0,1,0,0,256,,38,,2,0,,0,3.184,5718322,39,0,0,1,0,1711001819681,20000,,12337,3.187,0,0,0,0,4,0,12853,4215.196,0,3.174,3.187,3354936,44493,3.184,0,5,3.186,3.189,0,0,3.298,0,3169.69,12.552,37.2,,,0,38,0,89,42,3.19,0,,1,13,,12.39,0,130,40,0,,38,3.19,72600,,3.185,59,,0,3.184,4272433,0,22,1,0,3.186,,1,0,1,0,0,0.016,0,2,0,3.184,42,5.1,5.054,0,0,4469048,0,0
3,1711001816520,21/03/2024 11:46:56.520,91.6667,3760,-38.212,50.931,5,31,1,0,0,0,0,0,0,0,0,1,0,0,0,0,0,0,0,0,0,0,5.1,36.6,43.6,3.3,0,3868856,2,3.185,59,0,0,40,39,0,0,3.183,16,,0,,27,0,0,3.172,3.184,0,3.174,1,41,0,40,0,3.186,60,0,0,1,0,0,256,,38,,2,0,,0,3.181,5718322,39,0,0,1,0,1711001816520,20000,,12337,3.186,0,0,0,0,4,0,12853,4215.196,0,3.172,3.186,3354936,43388,3.183,0,5,3.184,3.189,0,0,3.3,0,3176.51,12.579,37.2,,,0,38,0,89,42,3.189,0,,1,9,,12.488,0,130,40,0,,38,3.187,72600,,3.183,59,,0,3.183,4272433,0,22,1,0,3.186,,1,0,1,0,0,0.017,0,2,0,3.182,42,5.116,5.096,0,0,4469048,0,0
3,1711001813260,21/03/2024 11:46:53.260,91.6667,3764,-21.616,51.195,6,31,1,0,0,0,0,0,0,0,0,1,0,0,0,0,0,0,0,0,0,0,5.2,19.6,45.6,3.2,0,3868826,2,3.201,59,0,0,40,39,0,0,3.199,16,,0,,22,0,0,3.19,3.2,0,3.192,1,41,0,40,0,3.202,60,0,0,1,0,0,256,,38,,2,0,,0,3.2,5718322,39,0,0,1,0,1711001813260,20000,,12337,3.201,0,0,0,0,4,0,12853,4215.196,0,3.19,3.202,3354936,42262,3.2,0,5,3.202,3.203,0,0,3.3,0,3184.09,12.609,37.2,,,0,38,0,89,42,3.204,0,,1,13,,12.479,0,130,40,0,,38,3.204,72600,,3.2,59,,0,3.199,4272433,0,22,1,0,3.2,,1,0,1,0,0,0.014,0,2,0,3.199,42,5.113,5.103,0,0,4469048,0,0
3,1711001810122,21/03/2024 11:46:50.122,95.8333,3826,-27.77,51.088,4,31,1,0,0,0,0,0,0,0,0,1,0,0,0,0,0,0,0,0,0,0,5.2,22.9,47.2,3.2,0,3868802,2,3.194,59,0,0,40,39,0,0,3.193,16,1,0,20,23,0,0,3.182,3.194,0,3.185,1,41,0,40,0,3.194,60,0,0,1,0,0,256,,38,0,2,0,0,0,3.193,5718322,39,0,0,1,0,1711001810122,20000,,12337,3.195,0,0,0,0,4,0,12853,4215.196,0,3.182,3.195,3354936,41161,3.191,0,5,3.195,3.197,0,0,3.283,0,3190.15,12.633,37.2,,2,0,38,0,89,42,3.198,0,105,1,13,,12.386,0,130,40,0,0,38,3.198,72600,2880,3.195,59,1,0,3.193,4272433,0,23,1,0,3.194,0,1,0,1,0,0,0.016,0,2,0,3.193,42,5.095,5.056,0,0,4469048,0,0
3,1711001806960,21/03/2024 11:46:46.960,79.1667,3819,-44.286,50.861,8,31,1,0,0,0,0,0,0,0,0,1,0,0,0,0,0,0,0,0,0,0,5.1,42.6,47.0,3.6,0,3868770,2,3.182,59,0,0,40,39,0,0,3.178,8,,0,,19,0,0,3.168,3.18,0,3.168,1,41,0,40,0,3.181,60,0,0,1,0,0,256,,38,,2,0,,0,3.178,5718322,39,0,0,1,0,1711001806960,,,12337,3.181,0,0,0,0,4,0,,4215.196,0,3.168,3.182,,40071,3.179,0,5,3.179,3.184,0,0,3.275,0,,12.665,,,,0,38,0,89,42,3.184,0,,1,9,,12.386,0,129,40,0,,38,3.184,,,3.179,60,,0,3.176,,0,19,1,0,3.182,,1,0,1,0,0,0.016,0,2,0,3.178,42,5.09,5.054,0,0,4469048,0,0
3,1711001803800,21/03/2024 11:46:43.800,91.6667,3649,-13.212,51.411,12,32,1,0,0,0,0,0,0,0,0,1,0,0,0,0,0,0,0,0,0,0,5.2,12.5,50.6,3.5,0,3868723,2,3.215,59,0,0,40,39,0,0,3.213,16,,0,,22,0,0,3.204,3.214,0,3.207,1,41,0,40,0,3.214,60,0,0,1,0,0,256,,38,,2,0,,0,3.216,5718322,39,0,0,1,0,1711001803800,20000,,12337,3.212,0,0,0,0,4,0,12853,4215.196,0,3.204,3.214,3354936,38975,3.213,0,5,3.215,3.214,0,0,3.3,0,3210.1,12.712,37.2,,,0,38,0,89,42,3.219,0,,1,13,,12.479,0,129,40,0,,38,3.219,72600,,3.215,59,,0,3.21,4272433,0,22,1,0,3.213,,1,0,1,0,0,0.015,0,2,0,3.216,42,5.116,5.1,0,0,4469048,0,0
3,1711001800660,21/03/2024 11:46:40.660,25.0,3715,,,6,,,,,,,,,,,,0,0,0,0,0,0,0,0,0,0,5.0,64.2,48.2,3.5,,,,,,0,,,,0,,,,1,,20,6,,,,,,,,,,,0,,,,,1,,,256,,,0,2,0,0,,,,,0,,,,1711001800660,,,,,,,,,,,,,0,,,,37871,,,,,,,0,,,,,,,2,,,,,,,0,105,1,,,,0,,40,,0,,,,2880,,,1,,,,,6,,0,,0,,0,,,0,,,,,,,,,,0,,,
3,1711001797520,21/03/2024 11:46:37.520,91.6667,3611,-85.199,50.343,13,32,1,0,0,0,0,0,0,0,0,1,0,0,0,0,0,0,0,0,0,0,5.0,83.4,51.1,3.7,0,3868635,2,3.148,59,0,0,40,39,0,0,3.146,8,,0,,22,0,0,3.127,3.147,0,3.127,1,41,0,40,0,3.147,60,0,0,1,0,0,256,,38,,2,0,,0,3.146,5718322,39,0,0,1,0,1711001797520,20000,,12337,3.153,0,0,0,0,4,0,12853,4215.196,0,3.135,3.15,3354936,36790,3.146,0,5,3.149,3.155,0,0,3.299,0,3232.32,12.8,37.2,,,0,38,0,89,42,3.155,0,,1,9,,12.39,0,129,40,0,,38,3.154,72600,,3.144,58,,0,3.144,4272433,0,22,1,0,3.15,,1,0,1,0,0,0.028,0,2,0,3.148,42,5.103,5.058,0,0,4469048,0,0
3,1711001794286,21/03/2024 11:46:34.286,91.6667,3408,-42.338,51.035,8,32,1,0,0,0,0,0,0,0,0,1,0,0,0,0,0,0,0,0,0,0,5.1,39.8,32.6,3.4,0,3868603,2,3.191,59,0,0,40,39,0,0,3.189,16,,0,,27,0,0,3.178,3.189,0,3.179,1,41,0,40,0,3.192,60,0,0,1,0,0,256,,38,,2,0,,0,3.189,5718322,39,0,0,1,0,1711001794286,20000,,12337,3.192,0,0,0,0,4,0,12853,4215.196,0,3.178,3.193,3354936,35685,3.189,0,5,3.191,3.194,0,0,3.296,0,3240.4,12.832,37.2,,,0,38,0,89,42,3.196,0,,1,13,,12.386,0,129,40,0,,38,3.196,72600,,3.19,58,,0,3.189,4272433,0,22,1,0,3.192,,1,0,1,0,0,0.018,0,2,0,3.191,42,5.098,5.054,0,0,4469048,0,0
3,1711001791128,21/03/2024 11:46:31.128,91.6667,3417,-38.362,51.138,9,32,1,0,0,0,0,0,0,0,0,1,0,0,0,0,0,0,0,0,0,0,5.2,36.5,31.9,3.7,0,3868576,2,3.199,59,0,0,40,39,0,0,3.196,8,,0,,23,0,0,3.186,3.196,0,3.186,1,41,0,40,0,3.199,60,0,0,1,0,0,256,,38,,2,0,,0,3.196,5718322,39,0,0,1,0,1711001791128,20000,,12337,3.199,0,0,0,0,4,0,12853,4215.196,0,3.186,3.198,3354936,34573,3.196,0,5,3.198,3.2,0,0,3.299,0,3247.22,12.859,37.2,,,0,38,0,89,42,3.202,0,,1,13,,12.488,0,129,40,0,,38,3.202,72600,,3.195,58,,0,3.193,4272433,0,22,1,0,3.198,,1,0,1,0,0,0.016,0,2,0,3.197,42,5.118,5.1,0,0,4469048,0,0
3,1711001787860,21/03/2024 11:46:27.860,91.6667,3326,-36.254,51.158,9,32,1,0,0,0,0,0,0,0,0,1,0,0,0,0,0,0,0,0,0,0,5.2,34.5,44.3,3.4,0,3868542,2,3.199,59,0,0,40,39,0,0,3.197,16,,0,,27,0,0,3.186,3.198,0,3.188,1,41,0,40,0,3.199,60,0,0,1,0,0,256,,38,,2,0,,0,3.197,5718322,39,0,0,1,0,1711001787860,20000,,12337,3.199,0,0,0,0,4,0,12853,4215.196,0,3.186,3.201,3354936,33462,3.197,0,5,3.198,3.202,0,0,3.294,0,3255.8,12.893,37.2,,,0,38,0,89,42,3.202,0,,1,9,,12.39,0,129,40,0,,38,3.202,72600,,3.198,58,,0,3.197,4272433,0,22,1,0,3.198,,1,0,1,0,0,0.016,0,2,0,3.199,42,5.1,5.056,0,0,4469048,0,0
3,1711001784720,21/03/2024 11:46:24.720,91.6667,3043,-36.856,51.252,12,32,1,0,0,0,0,0,0,0,0,1,0,0,0,0,0,0,0,0,0,0,5.2,35.3,29.1,3.6,0,3868489,2,3.205,59,0,0,40,39,0,0,3.203,16,,0,,27,0,0,3.193,3.203,0,3.194,1,41,0,40,0,3.205,60,0,0,1,0,0,256,,38,,2,0,,0,3.202,5718322,39,0,0,1,0,1711001784720,20000,,12337,3.206,0,0,0,0,4,0,12853,4215.196,0,3.193,3.206,3354936,32358,3.203,0,5,3.204,3.207,0,0,3.296,0,3269.19,12.946,37.2,,,0,38,0,89,42,3.208,0,,1,13,,12.386,0,129,40,0,,38,3.208,72600,,3.204,58,,0,3.202,4272433,0,22,1,0,3.205,,1,0,1,0,0,0.015,0,2,0,3.205,42,5.105,5.093,0,0,4469048,0,0
3,1711001781600,21/03/2024 11:46:21.600,91.6667,2795,-42.258,51.211,16,32,1,0,0,0,0,0,0,0,0,1,0,0,0,0,0,0,0,0,0,0,5.1,41.0,35.7,3.5,0,3868457,2,3.202,59,0,0,40,39,0,0,3.2,16,,0,,22,0,0,3.188,3.201,0,3.191,1,41,0,40,0,3.203,60,0,0,1,0,0,256,,38,,2,0,,0,3.201,5718322,39,0,0,1,0,1711001781600,20000,,12337,3.205,0,0,0,0,4,0,12853,4215.196,0,3.188,3.204,3354936,31277,3.2,0,5,3.203,3.205,0,0,3.295,0,3277.27,12.978,37.2,,,0,38,0,89,42,3.205,0,,1,5,,12.386,0,129,40,0,,38,3.205,72600,,3.201,58,,0,3.199,4272433,0,22,1,0,3.202,,1,0,1,0,0,0.017,0,2,0,3.201,42,5.095,5.051,0,0,4469048,0,0
3,1711001778400,21/03/2024 11:46:18.400,91.6667,2312,-26.796,51.515,14,32,1,0,0,0,0,0,0,0,0,1,0,0,0,0,0,0,0,0,0,0,5.2,26.2,29.2,2.8,0,3868428,2,3.22,59,0,0,40,39,0,0,3.219,16,,0,,22,0,0,3.208,3.22,0,3.212,1,41,0,40,0,3.221,60,0,0,1,0,0,256,,38,,2,0,,0,3.22,5718322,39,0,0,1,0,1711001778400,20000,,12337,3.222,0,0,0,0,4,0,12853,4215.196,0,3.208,3.221,3354936,30167,3.22,0,5,3.221,3.224,0,0,3.291,0,3284.59,13.007,37.2,,,0,38,0,89,42,3.224,0,,1,9,,12.394,0,129,40,0,,38,3.224,72600,,3.22,58,,0,3.22,4272433,0,22,1,0,3.221,,1,0,1,0,0,0.016,0,2,0,3.221,42,5.098,5.056,0,0,4469048,0,0
3,1711001775260,21/03/2024 11:46:15.260,91.6667,1995,-1.646,51.909,1,32,1,0,0,0,0,0,0,0,0,1,0,0,0,0,0,0,0,0,0,0,5.3,1.0,0.0,2.3,0,3868415,2,3.245,59,0,0,40,39,0,0,3.244,16,,0,,27,0,0,3.234,3.246,0,3.243,1,41,0,40,0,3.246,60,0,0,1,0,0,256,,38,,2,0,,0,3.244,5718322,39,0,0,1,0,1711001775260,20000,,12337,3.244,0,0,0,0,4,0,12853,4215.196,0,3.234,3.246,3354936,29092,3.244,0,5,3.244,3.247,0,0,3.275,0,3287.87,13.02,37.2,,,0,38,0,89,42,3.248,0,,1,13,,12.398,0,129,40,0,,38,3.248,72600,,3.244,58,,0,3.245,4272433,0,22,1,0,3.244,,1,0,1,0,0,0.014,0,2,0,3.245,42,5.09,5.061,0,0,4469048,0,0
3,1711001772140,21/03/2024 11:46:12.140,95.8333,2021,-9.307,51.757,3,32,1,0,0,0,0,0,0,0,0,1,0,0,0,0,0,0,0,0,0,0,5.3,7.6,15.0,2.3,0,3868408,2,3.237,59,0,0,40,39,0,0,3.234,16,1,0,20,28,0,0,3.224,3.236,0,3.231,1,41,0,40,0,3.236,60,0,0,1,0,0,256,,38,0,2,0,0,0,3.235,5718322,39,0,0,1,0,1711001772140,20000,,12337,3.235,0,0,0,0,4,0,12853,4215.196,0,3.224,3.236,3354936,27985,3.235,0,5,3.235,3.238,0,0,3.298,0,3289.64,13.027,37.2,,2,0,38,0,89,42,3.238,0,105,1,9,,12.39,0,129,40,0,0,38,3.238,72600,2880,3.235,58,1,0,3.235,4272433,0,23,1,0,3.236,0,1,0,1,0,0,0.014,0,2,0,3.235,42,5.1,5.054,0,0,4469048,0,0
3,1711001768868,21/03/2024 11:46:08.868,95.8333,1964,-15.461,51.686,8,32,1,0,0,0,0,0,0,0,0,1,0,0,0,0,0,0,0,0,0,0,5.3,14.5,18.9,2.4,0,3868397,2,3.231,59,0,0,40,39,0,0,3.23,16,1,0,20,28,0,0,3.219,3.231,0,3.226,1,41,0,40,0,3.233,60,0,0,1,0,0,256,,38,0,2,0,0,0,3.23,5718322,39,0,0,1,0,1711001768868,20000,,12337,3.231,0,0,0,0,4,0,12853,4215.196,0,3.219,3.232,3354936,26870,3.231,0,5,3.231,3.234,0,0,3.292,0,3292.42,13.038,37.2,,2,0,38,0,89,42,3.234,0,105,1,9,,12.458,0,129,40,0,0,38,3.234,72600,2880,3.231,58,1,0,3.23,4272433,0,23,1,0,3.231,0,1,0,1,0,0,0.015,0,2,0,3.231,42,5.111,5.084,0,0,4469048,0,0
3,1711001765640,21/03/2024 11:46:05.640,25.0,1857,,,7,,,,,,,,,,,,0,0,0,0,0,0,0,0,0,0,5.3,13.1,16.3,2.3,,,,,,0,,,,0,,,,1,,20,6,,,,,,,,,,,0,,,,,1,,,256,,,0,2,0,0,,,,,0,,,,1711001765640,,,,,,,,,,,,,0,,,,25731,,,,,,,0,,,,,,,2,,,,,,,0,105,1,,,,0,,40,,0,,,,2880,,,1,,,,,6,,0,,0,,0,,,0,,,,,,,,,,0,,,
3,1711001762480,21/03/2024 11:46:02.480,91.6667,1860,-10.06,51.763,5,32,1,0,0,0,0,0,0,0,0,1,0,0,0,0,0,0,0,0,0,0,5.3,9.8,16.2,2.2,0,3868376,2,3.236,59,0,0,40,39,0,0,3.235,16,,0,,27,0,0,3.224,3.236,0,3.232,1,41,0,40,0,3.237,60,0,0,1,0,0,256,,38,,2,0,,0,3.235,5718322,39,0,0,1,0,1711001762480,20000,,12337,3.236,0,0,0,0,4,0,12853,4215.196,0,3.224,3.237,3354936,24650,3.235,0,5,3.235,3.238,0,0,3.274,0,3297.72,13.059,37.2,,,0,38,0,89,42,3.239,0,,1,13,,12.381,0,129,40,0,,38,3.239,72600,,3.236,58,,0,3.235,4272433,0,22,1,0,3.236,,1,0,1,0,0,0.015,0,2,0,3.236,42,5.09,5.054,0,0,4469048,0,0
3,1711001759300,21/03/2024 11:45:59.300,91.6667,1786,-12.459,51.743,7,33,1,0,0,0,0,0,0,0,0,1,0,0,0,0,0,0,0,0,0,0,5.3,11.8,15.5,2.2,0,3868362,2,3.235,59,0,0,40,39,0,0,3.233,16,,0,,27,0,0,3.223,3.235,0,3.23,1,41,0,40,0,3.235,60,0,0,1,0,0,256,,38,,2,0,,0,3.233,5718322,39,0,0,1,0,1711001759300,20000,,12337,3.235,0,0,0,0,4,0,12853,4215.196,0,3.223,3.236,3354936,23540,3.234,0,5,3.235,3.237,0,0,3.298,0,3301.26,13.073,37.2,,,0,38,0,89,42,3.238,0,,1,13,,12.415,0,129,40,0,,38,3.238,72600,,3.234,58,,0,3.234,4272433,0,22,1,0,3.235,,1,0,1,0,0,0.015,0,2,0,3.234,42,5.108,5.098,0,0,4469048,0,0
3,1711001756120,21/03/2024 11:45:56.120,91.6667,1732,-7.128,51.829,5,33,1,0,0,0,0,0,0,0,0,1,0,0,0,0,0,0,0,0,0,0,5.3,6.9,7.6,2.1,0,3868355,2,3.24,59,0,0,40,39,0,0,3.239,16,,0,,22,0,0,3.228,3.24,0,3.237,1,41,0,40,0,3.241,60,0,0,1,0,0,256,,38,,2,0,,0,3.239,5718322,39,0,0,1,0,1711001756120,20000,,12337,3.24,0,0,0,0,4,0,12853,4215.196,0,3.228,3.241,3354936,22427,3.239,0,5,3.24,3.242,0,0,3.298,0,3303.03,13.08,37.2,,,0,38,0,89,42,3.243,0,,1,13,,12.449,0,129,40,0,,38,3.243,72600,,3.239,58,,0,3.24,4272433,0,22,1,0,3.24,,1,0,1,0,0,0.015,0,2,0,3.24,42,5.111,5.1,0,0,4469048,0,0
3,1711001752900,21/03/2024 11:45:52.900,95.8333,1799,-3.674,51.854,2,33,1,0,0,0,0,0,0,0,0,1,0,0,0,0,0,0,0,0,0,0,5.3,2.7,9.9,2.1,0,3868351,2,3.242,59,0,0,40,39,0,0,3.24,16,1,0,20,23,0,0,3.23,3.242,0,3.239,1,41,0,40,0,3.242,60,0,0,1,0,0,256,,38,0,2,0,0,0,3.241,5718322,39,0,0,1,0,1711001752900,20000,,12337,3.241,0,0,0,0,4,0,12853,4215.196,0,3.23,3.242,3354936,21318,3.241,0,5,3.241,3.243,0,0,3.296,0,3304.04,13.084,37.2,,2,0,38,0,89,42,3.245,0,105,1,13,,12.386,0,129,40,0,0,38,3.245,72600,2880,3.241,58,1,0,3.242,4272433,0,23,1,0,3.241,0,1,0,1,0,0,0.015,0,2,0,3.241,42,5.103,5.054,0,0,4469048,0,0
3,1711001749720,21/03/2024 11:45:49.720,91.6667,1783,-9.979,51.759,6,33,1,0,0,0,0,0,0,0,0,1,0,0,0,0,0,0,0,0,0,0,5.3,9.4,12.9,2.2,0,3868344,2,3.236,59,0,0,40,39,0,0,3.234,16,,0,,27,0,0,3.224,3.236,0,3.232,1,41,0,40,0,3.236,60,0,0,1,0,0,256,,38,,2,0,,0,3.235,5718322,39,0,0,1,0,1711001749720,20000,,12337,3.236,0,0,0,0,4,0,12853,4215.196,0,3.224,3.236,3354936,20213,3.235,0,5,3.235,3.237,0,0,3.285,0,3305.8,13.091,37.2,,,0,38,0,89,42,3.239,0,,1,13,,12.445,0,129,40,0,,38,3.239,72600,,3.235,58,,0,3.236,4272433,0,22,1,0,3.236,,0,0,1,0,0,0.015,0,2,0,3.235,42,5.103,5.077,0,0,4469048,0,0
3,1711001746580,21/03/2024 11:45:46.580,91.6667,1684,-9.538,51.754,7,33,1,0,0,0,0,0,0,0,0,1,0,0,0,0,0,0,0,0,0,0,5.3,9.2,14.3,2.0,0,3868335,2,3.235,59,0,0,40,39,0,0,3.234,16,,0,,27,0,0,3.224,3.236,0,3.231,1,41,0,40,0,3.236,60,0,0,1,0,0,256,,38,,2,0,,0,3.234,5718322,39,0,0,1,0,1711001746580,20000,,12337,3.235,0,0,0,0,4,0,12853,4215.196,0,3.224,3.237,3354936,19133,3.235,0,5,3.235,3.237,0,0,3.279,0,3308.08,13.1,37.2,,,0,38,0,89,42,3.239,0,,1,13,,12.386,0,129,40,0,,38,3.239,72600,,3.235,58,,0,3.235,4272433,0,22,1,0,3.235,,1,0,1,0,0,0.015,0,2,0,3.235,42,5.093,5.054,0,0,4469048,0,0
3,1711001743420,21/03/2024 11:45:43.420,95.8333,1599,-6.084,51.8,4,33,1,0,0,0,0,0,0,0,0,1,0,0,0,0,0,0,0,0,0,0,5.3,5.6,11.5,1.9,0,3868328,2,3.238,59,0,0,40,39,0,0,3.237,16,1,0,20,28,0,0,3.227,3.239,0,3.236,1,41,0,40,0,3.239,60,0,0,1,0,0,256,,38,0,2,0,0,0,3.238,5718322,39,0,0,1,0,1711001743420,20000,,12337,3.238,0,0,0,0,4,0,12853,4215.196,0,3.227,3.239,3354936,18029,3.237,0,5,3.238,3.24,0,0,3.275,0,3309.84,13.107,37.2,,2,0,38,0,89,42,3.241,0,105,1,13,,12.403,0,129,40,0,0,38,3.241,72600,2880,3.237,58,1,0,3.238,4272433,0,23,1,0,3.237,0,1,0,1,0,0,0.014,0,2,0,3.238,42,5.09,5.061,0,0,4469048,0,0
3,1711001740240,21/03/2024 11:45:40.240,91.6667,1554,-7.359,51.773,5,33,1,0,0,0,0,0,0,0,0,1,0,0,0,0,0,0,0,0,0,0,5.3,6.8,14.0,1.9,0,3868321,2,3.237,59,0,0,40,39,0,0,3.235,16,,0,,27,0,0,3.225,3.237,0,3.233,1,41,0,40,0,3.238,60,0,0,1,0,0,256,,38,,2,0,,0,3.236,5718322,39,0,0,1,0,1711001740240,20000,,12337,3.236,0,0,0,0,4,0,12853,4215.196,0,3.225,3.237,3354936,16919,3.236,0,5,3.236,3.238,0,0,3.296,0,3311.61,13.114,37.2,,,0,38,0,89,42,3.24,0,,1,13,,12.386,0,129,40,0,,38,3.24,72600,,3.236,58,,0,3.236,4272433,0,22,1,0,3.236,,1,0,1,0,0,0.015,0,2,0,3.236,42,5.103,5.056,0,0,4469048,0,0
3,1711001737120,21/03/2024 11:45:37.120,91.6667,1465,-9.307,51.73,7,33,1,0,0,0,0,0,0,0,0,1,0,0,0,0,0,0,0,0,0,0,5.3,9.0,16.3,1.8,0,3868310,2,3.234,59,0,0,40,39,0,0,3.233,16,,0,,27,0,0,3.223,3.234,0,3.23,1,41,0,40,0,3.235,60,0,0,1,0,0,256,,38,,2,0,,0,3.233,5718322,39,0,0,1,0,1711001737120,20000,,12337,3.234,0,0,0,0,4,0,12853,4215.196,0,3.223,3.235,3354936,15840,3.233,0,5,3.234,3.235,0,0,3.299,0,3314.39,13.125,37.2,,,0,38,0,89,42,3.237,0,,1,13,,12.386,0,129,40,0,,38,3.237,72600,,3.233,58,,0,3.234,4272433,0,22,1,0,3.233,,1,0,1,0,0,0.014,0,2,0,3.233,42,5.103,5.068,0,0,4469048,0,0
3,1711001733960,21/03/2024 11:45:33.960,95.8333,1394,-10.582,51.711,8,33,1,0,0,0,0,0,0,0,0,1,0,0,0,0,0,0,0,0,0,0,5.3,9.8,17.3,1.7,0,3868302,2,3.233,59,0,0,40,39,0,0,3.231,16,1,0,20,28,0,0,3.221,3.233,0,3.228,1,41,0,40,0,3.234,60,0,0,1,0,0,256,,38,0,2,0,0,0,3.232,5718322,39,0,0,1,0,1711001733960,20000,,12337,3.233,0,0,0,0,4,0,12853,4215.196,0,3.221,3.234,3354936,14760,3.232,0,5,3.233,3.234,0,0,3.298,0,3316.41,13.133,37.2,,2,0,38,0,89,42,3.236,0,105,1,13,,12.462,0,129,40,0,0,38,3.236,72600,2880,3.232,58,1,0,3.232,4272433,0,23,1,0,3.232,0,1,0,1,0,0,0.015,0,2,0,3.232,42,5.111,5.096,0,0,4469048,0,0
3,1711001730780,21/03/2024 11:45:30.780,91.6667,1362,-6.827,51.765,5,33,1,0,0,0,0,0,0,0,0,1,0,0,0,0,0,0,0,0,0,0,5.3,5.9,10.0,1.7,0,3868295,2,3.236,59,0,0,40,39,0,0,3.235,16,,0,,27,0,0,3.225,3.236,0,3.233,1,41,0,40,0,3.237,60,0,0,1,0,0,256,,38,,2,0,,0,3.235,5718322,39,0,0,1,0,1711001730780,20000,,12337,3.236,0,0,0,0,4,0,12853,4215.196,0,3.225,3.237,3354936,13650,3.235,0,5,3.236,3.237,0,0,3.293,0,3318.18,13.14,37.2,,,0,38,0,89,42,3.239,0,,1,13,,12.386,0,129,40,0,,38,3.239,72600,,3.236,59,,0,3.236,4272433,0,22,1,0,3.235,,1,0,1,0,0,0.014,0,2,0,3.236,42,5.093,5.054,0,0,4469048,0,0
3,1711001727583,21/03/2024 11:45:27.583,91.6667,1426,-6.756,51.745,5,33,1,0,0,0,0,0,0,0,0,1,0,0,0,0,0,0,0,0,0,0,5.3,6.2,11.4,1.7,0,3868290,2,3.235,59,0,0,40,39,0,0,3.234,16,,0,,27,0,0,3.224,3.235,0,3.231,1,41,0,40,0,3.236,60,0,0,1,0,0,256,,38,,2,0,,0,3.234,5718322,39,0,0,1,0,1711001727583,20000,,12337,3.234,0,0,0,0,4,0,12853,4215.196,0,3.224,3.236,3354936,12544,3.234,0,5,3.235,3.236,0,0,3.278,0,3319.44,13.145,37.2,,,0,38,0,89,42,3.238,0,,1,13,,12.386,0,129,40,0,,38,3.238,72600,,3.234,59,,0,3.235,4272433,0,22,1,0,3.234,,1,0,1,0,0,0.014,0,2,0,3.234,42,5.093,5.054,0,0,4469048,0,0
3,1711001724320,21/03/2024 11:45:24.320,91.6667,1465,-4.277,51.773,4,33,1,0,0,0,0,0,0,0,0,1,0,0,0,0,0,0,0,0,0,0,5.3,3.8,5.9,1.8,0,3868285,2,3.237,59,0,0,40,39,0,0,3.235,16,,0,,22,0,0,3.225,3.238,0,3.234,1,41,0,40,0,3.238,60,0,0,1,0,0,256,,38,,2,0,,0,3.235,5718322,39,0,0,1,0,1711001724320,20000,,12337,3.236,0,0,0,0,4,0,12853,4215.196,0,3.225,3.237,3354936,11400,3.236,0,5,3.236,3.238,0,0,3.28,0,3320.7,13.15,37.2,,,0,38,0,89,42,3.239,0,,1,13,,12.381,0,129,40,0,,38,3.239,72600,,3.236,59,,0,3.236,4272433,0,22,1,0,3.236,,1,0,1,0,0,0.014,0,2,0,3.236,42,5.093,5.054,0,0,4469048,0,0
3,1711001723660,21/03/2024 11:45:23.660,95.8333,1474,-5.331,51.727,2,33,1,0,0,0,0,0,0,0,0,1,0,0,0,0,0,0,0,0,0,0,5.3,4.4,6.6,1.8,0,3868284,2,3.234,59,0,0,40,39,0,0,3.232,16,1,0,20,28,0,0,3.223,3.234,0,3.23,1,41,0,40,0,3.234,60,0,0,1,0,0,256,,38,0,2,0,0,0,3.233,5718322,39,0,0,1,0,1711001723660,20000,,12337,3.233,0,0,0,0,4,0,12853,4215.196,0,3.223,3.234,3354936,11191,3.232,0,5,3.234,3.235,0,0,3.273,0,3320.95,13.151,37.2,,2,0,38,0,89,42,3.237,0,105,1,13,,12.394,0,129,40,0,0,38,3.237,72600,2880,3.234,59,1,0,3.234,4272433,0,23,1,0,3.233,0,1,0,1,0,0,0.014,0,2,0,3.233,42,5.093,5.061,0,0,4469048,0,0