File: log.csv
id,timestamp,localtime,percentage_of_can_ids,MotorSpeed_340920578,PackCurr_6,PackVol_6,Throttle_408094978,SOC_8,DchgFetStatus_9,DchgOverTempProt_9,DchgUnderTempProt_9,PackUnderVolProt_9,PackOverVolProt_9,DchgOverCurrProt_9,CellOverVolProt_9,ChgPeakProt_9,FetFailure_9,IgnitionStatus_12,Throttle_Error_408094978,DriveError_Motor_hall_408094978,Motor_Stalling_408094978,Motor_Phase_loss_408094978,Controller_Over_Temeprature_408094978,Motor_Over_Temeprature_408094978,Overcurrent_Fault_408094978,DriveError_Controller_OverVoltag_408094978,Controller_Undervoltage_408094978,MOSFET_Protection_408094978,BatteryVoltage_340920578,BatteryCurrent_340920578,AC_Current_340920579,AC_Voltage_340920580,CellUnderVolWarn_9,Dchg_Accumulative_Ah_14,ChargerType_12,CellVol02_1,PcbTemp_12,Reverse_Pulse_408094978,LatchProtection_12,Temp6_10,Temp3_10,ForwardParking_Mode_Ack_408094978,CellOverDevProt_9,AvgCellVol_5,MinVoltId_5,DriveStatus1_Ride_418513673,LoadDetection_12,Set_Regen_418513673,number_of_records,ChgOverCurrProt_9,BuzzerStatus_12,MinCellVol_5,CellVol04_1,CellOverVolWarn_9,CellVol08_2,CellBalFeatureStatus_12,Temp2_10,CellUnderVolProt_9,Temp8_10,Hill_hold_Ack_408094978,CellVol06_2,AfeTemp_12,LatchType_12,DI1_12,Wakeup_Ack_408094978,PreChgFetStatus_9,DchgOverTempWarn_9,MCU_ID_408094979,BMS_Serial_No_MUX_11,Temp1_10,DriveStatus2_Reverse_Request_418513673,Mode_Ack_408094978,ModeR_Pulse_408094978,VCU_ID_418513673,ResSocProt_9,CellVol12_3,HwVer_13,Temp4_10,Side_Stand_Ack_408094978,DchgUnderTempWarn_9,ChgFetStatus_9,ImmoChg_12,timestamp,ChargeSOP_16,BMS_Serial_No__1_7_11,FWSubVer_13,CellVol05_2,ShortCktProt_9,DO2_12,BattLowSocWarn_9,ChgUnderTempWarn_9,BmsStatus_8,ChgOverTempProt_9,InternalFWSubVer_21,Chg_Accumulative_Ah_14,Park_Pulse_408094978,CellVol16_4,CellVol07_2,InternalFWVer_21,sequence,CellVol01_1,LedStatus_9,MaxTempId_7,CellVol15_4,CellVol09_3,DschgPeakProt_9,Motor_Temperature_408094979,_3v3Vol_15,ChargerDetection_12,Actual_SoC_18,SOCAh_8,Usable_Capacity_Ah_18,BMS_Serial_No_Bytes_8_14_11,Mode_Request_418513673,PackOverVolWarn_9,Temp7_10,ChgOverTempWarn_9,SOH_8,Temp5_10,MaxCellVol_5,Direction_Ack_408094978,DC_Current_Limit_418513673,Ride_Ack_408094978,MaxVoltId_5,BMS_Serial_No__15_11,_12vVol_15,MCU_Fault_Code_408094979,CycleCount_7,MCU_Temperature_408094979,TempSenseFault_9,Hill_Hold_418513673,MinTemp_7,CellVol13_4,DchgSOP_16,Drive_418513673,CellVol14_4,FetTemp_8,WakeUp_Request_418513673,PackUnderVolWarn_9,CellVol10_3,ConfigVer_21,FetTempProt_9,number_of_can_ids,ChgAuth_9,Brake_Pulse_408094978,CellVol03_1,ForwardPark_Request_418513673,CanCommDetection_12,DriveStatus_Regenerative_Braking_408094978,MinTempId_7,ResStatus_9,ModeL_Pulse_408094978,CellVolMinMaxDev_7,ImmoDchg_12,CellChemType_12,ChgUnderTempProt_9,CellVol11_3,MaxTemp_7,RefVol_15,_5vVol_15,DO1_12,SideStand_Pulse_408094978,FwVer_13,DI2_12,ActiveCellBalStatus_9
4,1710382176986,14/03/2024 07:39:36.986,25.0,,-34.754,50.627,,,,,,,,,,,,,,,,,,,,,,,,,,,,,,3.17,,,,,,,,3.164,8,,,,6,,,3.148,3.166,,3.148,,,,,,3.168,,,,,,,,,,,,,,,3.167,,,,,,,1710382176986,,,,3.172,,,,,,,,,,3.156,3.16,,38335,3.162,,,3.168,3.168,,,,,,,,,,,,,,,3.172,,,,5,,,,,,,,,3.161,,,3.169,,,,3.169,,,6,,,3.163,,,,,,,,,,,3.16,,,,,,,,
4,1710382171346,14/03/2024 07:39:31.346,91.6667,2759,-64.163,50.153,27,35,1,0,0,0,0,0,0,0,0,1,0,0,0,0,0,0,0,0,0,0,4.8,66.0,49.7,2.5,1,1457797,2,3.146,56,0,0,39,38,0,0,3.134,8,,0,,27,0,0,3.106,3.137,0,3.106,0,38,0,38,0,3.139,58,0,0,1,0,0,256,,36,,3,0,,0,3.138,5718322,38,0,0,1,0,1710382171346,20000,,12337,3.147,0,0,0,0,4,0,12854,1489.322,0,3.12,3.129,3354936,36384,3.129,0,6,3.143,3.142,0,96,3.295,0,3557.57,14.088,37.2,,,0,38,0,99,37,3.147,0,,1,5,,12.267,0,48,53,0,,36,3.133,75000,,3.143,60,,1,3.139,4272433,0,22,1,0,3.136,,1,0,1,0,0,0.041,0,2,0,3.126,39,5.083,5.068,0,0,4469048,0,0
4,1710382165786,14/03/2024 07:39:25.786,95.8333,2501,-91.412,49.818,59,35,1,0,0,0,0,0,0,0,0,1,0,0,0,0,0,0,0,0,0,0,4.8,94.3,49.3,2.4,1,1457700,2,3.125,56,0,0,38,38,0,0,3.113,8,1,0,20,23,0,0,3.08,3.118,0,3.08,0,38,0,38,0,3.12,58,0,0,1,0,0,256,,36,0,3,0,0,0,3.116,5718322,38,0,0,1,0,1710382165786,20000,,12337,3.123,0,0,0,0,4,0,12854,1489.322,0,3.092,3.114,3354936,34472,3.106,0,2,3.12,3.124,0,96,3.293,0,3582.07,14.185,37.2,,3,0,38,0,99,37,3.125,0,115,1,2,,12.186,0,48,53,0,0,36,3.113,75000,4500,3.125,60,1,1,3.12,4272433,0,23,1,0,3.115,0,1,0,1,0,0,0.045,0,2,0,3.107,38,5.055,5.028,0,0,4469048,0,0
4,1710382160206,14/03/2024 07:39:20.206,95.8333,2565,-63.395,50.341,31,35,1,0,0,0,0,0,0,0,0,1,0,0,0,0,0,0,0,0,0,0,4.9,67.3,42.8,2.3,1,1457640,2,3.151,56,0,0,38,38,0,0,3.146,8,1,0,20,23,0,0,3.121,3.146,0,3.121,0,37,0,38,0,3.152,58,0,0,1,0,0,256,,36,0,3,0,0,0,3.149,5718322,38,0,0,1,0,1710382160206,20000,,12337,3.155,0,0,0,0,4,0,12854,1489.322,0,3.132,3.146,3354936,32528,3.141,0,3,3.155,3.156,0,96,3.272,0,3597.22,14.245,37.2,,3,0,38,0,99,37,3.156,0,115,1,9,,12.195,0,48,53,0,0,36,3.147,75000,4500,3.155,60,1,1,3.152,4272433,0,23,1,0,3.143,0,1,0,1,0,0,0.035,0,2,0,3.14,38,5.055,5.035,0,0,4469048,0,0
4,1710382154586,14/03/2024 07:39:14.586,91.6667,2588,-22.661,51.132,12,36,1,0,0,0,0,0,0,0,0,1,0,0,0,0,0,0,0,0,0,0,5.0,24.2,16.4,2.3,1,1457588,2,3.199,56,0,0,38,38,0,0,3.195,8,,0,,22,0,0,3.181,3.194,0,3.181,0,37,0,38,0,3.196,58,0,0,1,0,0,256,,36,,3,0,,0,3.198,5718322,38,0,0,1,0,1710382154586,20000,,12337,3.199,0,0,0,0,4,0,12854,1489.322,0,3.191,3.189,3354936,30586,3.195,0,3,3.2,3.199,0,96,3.293,0,3610.35,14.297,37.2,,,0,38,0,99,37,3.204,0,,1,14,,12.173,0,48,53,0,,36,3.197,75000,,3.204,61,,1,3.201,4272433,0,22,1,0,3.194,,1,0,1,0,0,0.023,0,2,0,3.195,38,5.078,5.065,0,0,4469048,0,0
4,1710382148966,14/03/2024 07:39:08.966,95.8333,2428,-53.053,50.306,27,36,1,0,0,0,0,0,0,0,0,1,0,0,0,0,0,0,0,0,0,0,4.9,56.8,77.5,2.2,1,1457518,2,3.152,56,0,0,38,38,0,0,3.144,8,1,0,20,23,0,0,3.117,3.145,0,3.117,0,37,0,38,0,3.15,58,0,0,1,0,0,256,,36,0,3,0,0,0,3.146,5718322,37,0,0,1,0,1710382148966,20000,,12337,3.153,0,0,0,0,4,0,12854,1489.322,0,3.135,3.14,3354936,28645,3.137,0,3,3.152,3.151,0,96,3.268,0,3628.03,14.367,37.2,,3,0,38,0,99,37,3.153,0,115,1,5,,12.178,0,48,53,0,0,36,3.144,75000,4500,3.153,61,1,1,3.15,4272433,0,23,1,0,3.144,0,1,0,1,0,0,0.036,0,2,0,3.137,38,5.05,5.028,0,0,4469048,0,0
4,1710382143306,14/03/2024 07:39:03.306,91.6667,1561,-30.392,51.103,28,36,1,0,0,0,0,0,0,0,0,1,0,0,0,0,0,0,0,0,0,0,5.0,32.2,108.8,1.4,1,1457435,2,3.19,55,0,0,38,38,0,0,3.193,3,,0,,27,0,0,3.183,3.184,0,3.191,0,37,0,38,0,3.205,58,0,0,1,0,0,256,,36,,3,0,,0,3.199,5718322,37,0,0,1,0,1710382143306,20000,,12337,3.189,0,0,0,0,4,0,12854,1489.322,0,3.188,3.197,3354936,26671,3.185,0,3,3.199,3.2,0,96,3.293,0,3648.99,14.45,37.2,,,0,38,0,99,37,3.205,0,,1,6,,12.182,0,48,53,0,,36,3.195,75000,,3.201,62,,1,3.203,4272433,0,22,1,0,3.183,,1,0,1,0,0,0.022,0,2,0,3.194,38,5.068,5.068,0,0,4469048,0,0
4,1710382137766,14/03/2024 07:38:57.766,95.8333,2731,17.377,51.753,0,36,1,0,0,0,0,0,0,0,0,1,0,0,0,0,0,0,0,0,0,0,5.2,6536.9,23.6,2.2,1,1457417,2,3.234,55,0,0,38,38,0,0,3.234,7,1,0,20,23,0,0,3.229,3.232,0,3.236,0,37,0,38,0,3.234,57,0,0,1,0,0,256,,36,0,3,0,0,0,3.236,5718322,37,0,0,1,0,1710382137766,20000,,12337,3.236,0,0,0,0,4,0,12854,1489.303,0,3.239,3.229,3354936,24759,3.238,0,3,3.236,3.229,0,96,3.293,0,3648.73,14.449,37.2,,3,0,38,0,99,36,3.239,0,115,1,16,,12.182,0,48,53,0,0,36,3.234,75000,4500,3.238,63,1,1,3.236,4272433,0,23,1,0,3.234,0,1,0,1,0,0,0.01,0,2,0,3.232,38,5.068,5.065,0,0,4469048,0,0
4,1710382132206,14/03/2024 07:38:52.206,91.6667,3727,19.906,51.595,0,36,1,0,0,0,0,0,0,0,0,1,0,0,0,0,0,0,0,0,0,0,5.1,6534.1,35.8,2.9,1,1457383,2,3.227,55,0,0,38,37,0,0,3.224,7,,0,,27,0,0,3.217,3.222,0,3.227,0,37,0,38,0,3.224,57,0,0,1,0,0,256,,36,,3,0,,0,3.224,5718322,37,0,0,1,0,1710382132206,20000,,12337,3.227,0,0,0,0,4,0,12854,1489.288,0,3.228,3.217,3354936,22819,3.229,0,6,3.225,3.218,0,96,3.293,0,3653.53,14.468,37.2,,,0,38,0,99,36,3.229,0,,1,1,,12.186,0,48,53,0,,36,3.223,75000,,3.229,64,,1,3.227,4272433,0,22,1,0,3.225,,1,0,1,0,0,0.012,0,2,0,3.223,38,5.068,5.068,0,0,4469048,0,0
4,1710382126606,14/03/2024 07:38:46.606,91.6667,4452,-111.554,48.463,43,36,1,0,0,0,0,0,0,0,0,1,0,0,0,0,0,0,0,0,0,0,4.6,104.9,108.1,3.1,1,1457269,2,3.042,55,0,0,38,37,0,0,3.028,8,,0,,22,0,0,2.978,3.033,0,2.978,0,37,0,37,0,3.04,57,0,0,1,0,0,256,,36,,3,0,,0,3.031,5718322,37,0,0,1,0,1710382126606,20000,,12337,3.046,0,0,0,0,4,0,12854,1489.284,0,3.006,3.028,3354936,20873,3.02,0,6,3.043,3.044,0,95,3.292,0,3681.31,14.578,37.2,,,0,38,0,99,36,3.046,0,,1,5,,12.173,0,48,53,0,,36,3.026,75000,,3.042,64,,1,3.034,4272433,0,22,1,0,3.031,,1,0,1,0,0,0.068,0,2,0,3.019,38,5.07,5.063,0,0,4469048,0,0
4,1710382120986,14/03/2024 07:38:40.986,91.6667,4263,-114.309,48.562,54,37,1,0,0,0,0,0,0,0,0,1,0,0,0,0,0,0,0,0,0,0,4.6,115.2,101.0,3.2,1,1457108,2,3.048,55,0,0,38,37,0,0,3.035,8,,0,,22,0,0,2.991,3.038,0,2.991,0,37,0,37,0,3.047,57,0,0,1,0,0,256,,36,,3,0,,0,3.041,5718322,37,0,0,1,0,1710382120986,20000,,12337,3.05,0,0,0,0,4,0,12854,1489.284,0,3.013,3.029,3354936,18928,3.023,0,6,3.049,3.051,0,95,3.29,0,3721.96,14.739,37.2,,,0,38,0,99,36,3.051,0,,1,9,,12.25,0,48,53,0,,36,3.034,75000,,3.049,62,,1,3.044,4272433,0,22,1,0,3.033,,1,0,1,0,0,0.06,0,2,0,3.022,38,5.078,5.061,0,0,4469048,0,0
4,1710382115403,14/03/2024 07:38:35.403,95.8333,3834,-113.541,48.773,59,37,1,0,0,0,0,0,0,0,0,1,0,0,0,0,0,0,0,0,0,0,4.6,114.7,95.0,3.3,0,1456918,2,3.062,54,0,0,38,37,0,0,3.048,8,1,0,20,23,0,0,3.0,3.049,0,3.0,0,37,0,37,0,3.055,57,0,0,1,0,0,256,,36,0,3,0,0,0,3.054,5718322,37,0,0,1,0,1710382115403,20000,,12337,3.066,0,0,0,0,4,0,12854,1489.284,0,3.025,3.046,3354936,16987,3.036,0,6,3.064,3.066,0,94,3.268,0,3769.94,14.929,37.2,,3,0,38,0,99,36,3.066,0,115,1,5,,12.178,0,48,53,0,0,36,3.045,75000,4500,3.065,61,1,1,3.058,4272433,0,23,1,0,3.046,0,1,0,1,0,0,0.066,0,2,0,3.036,38,5.05,5.028,0,0,4469048,0,0
4,1710382109786,14/03/2024 07:38:29.786,95.8333,3102,-109.404,49.08,69,38,1,0,0,0,0,0,0,0,0,1,0,0,0,0,0,0,0,0,0,0,4.7,114.9,114.5,2.9,0,1456766,2,3.079,54,0,0,38,37,0,0,3.067,8,1,0,20,23,0,0,3.022,3.072,0,3.022,0,37,0,37,0,3.075,56,0,0,1,0,0,256,,36,0,3,0,0,0,3.072,5718322,37,0,0,1,0,1710382109786,20000,,12337,3.081,0,0,0,0,4,0,12854,1489.284,0,3.049,3.063,3354936,15043,3.055,0,6,3.079,3.083,0,92,3.293,0,3808.33,15.081,37.2,,3,0,38,0,99,36,3.083,0,115,1,9,,12.207,0,48,52,0,0,36,3.07,75000,4500,3.081,59,1,1,3.077,4272433,0,23,1,0,3.065,0,1,0,1,0,0,0.061,0,2,0,3.057,38,5.08,5.065,0,0,4469048,0,0
4,1710382104137,14/03/2024 07:38:24.137,95.8333,1733,-78.09,50.013,63,38,1,0,0,0,0,0,0,0,0,1,0,0,0,0,0,0,0,0,0,0,4.8,79.2,152.6,1.8,0,1456612,2,3.137,54,0,0,38,37,0,0,3.125,8,1,0,20,28,0,0,3.087,3.13,0,3.087,0,37,0,37,0,3.131,57,0,0,1,0,0,256,,36,0,3,0,0,0,3.13,5718322,37,0,0,1,0,1710382104137,20000,,12337,3.138,0,0,0,0,4,0,12854,1489.284,0,3.113,3.12,3354936,13069,3.121,0,6,3.137,3.131,0,91,3.293,0,3847.22,15.235,37.2,,3,0,38,0,99,36,3.14,0,115,1,14,,12.178,0,48,52,0,0,36,3.126,75000,4500,3.14,58,1,1,3.127,4272433,0,23,1,0,3.129,0,1,0,1,0,0,0.053,0,2,0,3.116,38,5.063,5.065,0,0,4469048,0,0
4,1710382098566,14/03/2024 07:38:18.566,95.8333,854,7.966,51.977,0,38,1,0,0,0,0,0,0,0,0,1,0,0,0,0,0,0,0,0,0,0,5.2,6545.4,42.7,0.6,1,1456567,2,3.25,54,0,0,38,37,0,0,3.248,7,1,0,20,28,0,0,3.244,3.247,0,3.248,0,37,0,37,0,3.248,57,0,0,1,0,0,256,,36,0,3,0,0,0,3.249,5718322,37,0,0,1,0,1710382098566,20000,,12337,3.25,0,0,0,0,9,0,12854,1489.281,0,3.249,3.244,3354936,11157,3.251,0,6,3.25,3.245,0,91,3.293,0,3857.82,15.277,37.2,,3,0,38,0,99,36,3.252,0,115,1,14,,12.178,0,48,52,0,0,36,3.248,75000,4500,3.252,59,1,1,3.251,4272433,0,23,1,0,3.248,0,1,0,1,0,0,0.008,0,2,0,3.247,38,5.073,5.065,0,0,4469048,0,0
4,1710382092946,14/03/2024 07:38:12.946,20.8333,3904,,,0,,,,,,,,,,,,0,0,0,0,0,0,0,0,0,0,5.1,6539.5,40.1,3.0,,,,,,0,,,,0,,,,,,,5,,,,,,,,,,,0,,,,,1,,,256,,,,3,0,,,,,,0,,,,1710382092946,,,,,,,,,,,,,0,,,,9182,,,,,,,91,,,,,,,,,,,,,,0,,1,,,,0,,52,,,,,,,,,,,,,,5,,0,,,,0,,,0,,,,,,,,,,0,,,
4,1710382087341,14/03/2024 07:38:07.341,25.0,3830,,,71,,,,,,,,,,,,0,0,0,0,0,0,0,0,0,0,4.6,115.3,95.3,3.4,,,,,,0,,,,0,,,,1,,20,6,,,,,,,,,,,0,,,,,1,,,256,,,0,3,0,0,,,,,0,,,,1710382087341,,,,,,,,,,,,,0,,,,7240,,,,,,,91,,,,,,,3,,,,,,,0,115,1,,,,0,,52,,0,,,,4500,,,1,,,,,6,,0,,0,,0,,,0,,,,,,,,,,0,,,
4,1710382081666,14/03/2024 07:38:01.666,91.6667,2420,-89.579,49.741,73,39,1,0,0,0,0,0,0,0,0,1,0,0,0,0,0,0,0,0,0,0,4.8,96.3,113.4,2.3,1,1456300,2,3.119,54,0,0,38,37,0,0,3.108,8,,0,,27,0,0,3.071,3.111,0,3.071,0,37,0,37,0,3.116,56,0,0,1,0,0,256,,36,,3,0,,0,3.111,5718322,37,0,0,1,0,1710382081666,20000,,12337,3.121,0,0,0,0,4,0,12854,1489.255,0,3.088,3.103,3354936,5293,3.102,0,6,3.12,3.121,0,91,3.293,0,3918.68,15.518,37.2,,,0,38,0,99,36,3.124,0,,1,14,,12.178,0,48,52,0,,36,3.108,75000,,3.124,58,,1,3.116,4272433,0,22,1,0,3.107,,1,0,1,0,0,0.053,0,2,0,3.103,38,5.065,5.063,0,0,4469048,0,0
4,1710382076108,14/03/2024 07:37:56.108,95.8333,2491,20.213,52.199,0,39,1,0,0,0,0,0,0,0,0,1,0,0,0,0,0,0,0,0,0,0,5.2,6532.9,27.9,2.0,1,1456249,2,3.263,54,0,0,38,37,0,0,3.262,9,1,0,20,28,0,0,3.256,3.26,0,3.266,0,37,0,37,0,3.262,56,0,0,1,0,0,256,,35,0,3,0,0,0,3.262,5718322,37,0,0,1,0,1710382076108,20000,,12337,3.264,0,0,0,0,4,0,12854,1489.244,0,3.265,3.258,3354936,3354,3.268,0,6,3.263,3.256,0,91,3.275,0,3928.78,15.558,37.2,,3,0,37,0,99,36,3.268,0,115,1,1,,12.207,0,48,52,0,0,35,3.261,75000,4500,3.263,58,1,1,3.263,4272433,0,23,1,0,3.263,0,1,0,1,0,0,0.012,0,2,0,3.262,38,5.06,5.042,0,0,4469048,0,0
4,1710382070586,14/03/2024 07:37:50.586,95.8333,4411,-44.103,50.548,35,39,1,0,0,0,0,0,0,0,0,1,0,0,0,0,0,0,0,0,0,0,4.9,41.0,46.9,3.3,1,1456244,2,3.162,54,0,0,38,37,0,0,3.159,8,1,0,20,23,0,0,3.144,3.154,0,3.144,0,37,0,37,0,3.159,56,0,0,1,0,0,256,,35,0,3,0,0,0,3.166,5718322,37,0,0,1,0,1710382070586,20000,,12337,3.161,0,0,0,0,4,0,12854,1489.221,0,3.153,3.157,3354936,1442,3.15,0,6,3.168,3.166,0,91,3.288,0,3924.24,15.54,37.2,,3,0,37,0,99,36,3.17,0,115,1,14,,12.182,0,48,52,0,0,35,3.162,75000,4500,3.17,59,1,1,3.168,4272433,0,23,1,0,3.153,0,1,0,1,0,0,0.026,0,2,0,3.155,38,5.053,5.026,0,0,4469048,0,0
4,1710382065046,14/03/2024 07:37:45.046,20.8333,4388,,,33,,,,,,,,,,,,0,0,0,0,0,0,0,0,0,0,4.9,40.2,41.9,3.4,,,,,,0,,,,0,,,,,,,5,,,,,,,,,,,0,,,,,1,,,256,,,,3,0,,,,,,0,,,,1710382065046,,,,,,,,,,,,,0,,,,65038,,,,,,,91,,,,,,,,,,,,,,0,,1,,,,0,,52,,,,,,,,,,,,,,5,,0,,,,0,,,0,,,,,,,,,,0,,,
4,1710382054166,14/03/2024 07:37:34.166,95.8333,4387,-4.751,50.958,0,39,1,0,0,0,0,0,0,0,0,1,0,0,0,0,0,0,0,0,0,0,5.0,6553.3,53.6,3.1,1,1456036,2,3.188,53,0,0,37,37,0,0,3.184,8,1,0,20,28,0,0,3.177,3.184,0,3.177,0,37,0,37,0,3.186,56,0,0,1,0,0,256,,35,0,3,0,0,0,3.186,5718322,37,0,0,1,0,1710382054166,20000,,12337,3.19,0,0,0,0,4,0,12854,1489.218,0,3.183,3.178,3354936,61285,3.184,0,2,3.191,3.183,0,91,3.295,0,3976.01,15.745,37.2,,3,0,37,0,99,36,3.192,0,115,1,14,,12.267,0,48,52,0,0,35,3.186,75000,4500,3.192,60,1,1,3.188,4272433,0,23,1,0,3.181,0,1,0,1,0,0,0.015,0,2,0,3.181,37,5.085,5.07,0,0,4469048,0,0
4,1710382048582,14/03/2024 07:37:28.582,91.6667,4447,-66.764,49.394,36,39,1,0,0,0,0,0,0,0,0,1,0,0,0,0,0,0,0,0,0,0,4.7,60.7,79.7,3.2,1,1455955,2,3.106,53,0,0,37,37,0,0,3.087,8,,0,,23,0,0,3.052,3.103,0,3.052,0,36,0,37,0,3.101,55,0,0,1,0,0,256,,35,,3,0,,0,3.08,5718322,37,0,0,1,0,1710382048582,20000,,12337,3.111,0,0,0,0,4,0,12854,1489.218,0,3.068,3.087,3354936,59336,3.087,0,3,3.09,3.092,0,91,3.293,0,3996.46,15.826,37.2,,,0,37,0,99,36,3.111,0,,1,5,,12.182,0,48,52,0,,35,3.074,75000,,3.093,61,,1,3.084,4272433,0,22,1,0,3.103,,1,0,1,0,0,0.059,0,2,0,3.063,37,5.068,5.068,0,0,4469048,0,0
4,1710382042986,14/03/2024 07:37:22.986,91.6667,4409,-105.963,48.921,35,40,1,0,0,0,0,0,0,0,0,1,0,0,0,0,0,0,0,0,0,0,4.6,103.0,94.2,3.2,1,1455808,2,3.07,53,0,0,37,37,0,0,3.057,8,,0,,22,0,0,3.019,3.058,0,3.019,0,36,0,37,0,3.059,55,0,0,1,0,0,256,,35,,3,0,,0,3.065,5718322,37,0,0,1,0,1710382042986,20000,,12337,3.069,0,0,0,0,4,0,12854,1489.218,0,3.039,3.047,3354936,57399,3.046,0,3,3.072,3.073,0,91,3.268,0,4033.58,15.973,37.2,,,0,37,0,99,36,3.073,0,,1,9,,12.178,0,48,51,0,,35,3.061,75000,,3.073,61,,1,3.068,4272433,0,22,1,0,3.052,,1,0,1,0,0,0.054,0,2,0,3.05,37,5.05,5.028,0,0,4469048,0,0
4,1710382037208,14/03/2024 07:37:17.208,95.8333,4418,-90.726,48.989,24,40,1,0,0,0,0,0,0,0,0,1,0,0,0,0,0,0,0,0,0,0,4.7,93.5,93.4,3.2,1,1455651,2,3.075,53,0,0,37,37,0,0,3.061,8,1,0,20,27,0,0,3.029,3.065,0,3.029,0,36,0,37,0,3.073,55,0,0,1,0,0,256,,35,0,3,0,0,0,3.065,5718322,36,0,0,1,0,1710382037208,20000,,12337,3.076,0,0,0,0,4,0,12854,1489.218,0,3.04,3.059,3354936,55389,3.05,0,3,3.068,3.076,0,90,3.293,0,4073.23,16.13,37.2,,3,0,37,0,99,36,3.076,0,115,1,5,,12.182,0,48,51,0,0,35,3.059,75000,4500,3.074,60,1,1,3.074,4272433,0,23,1,0,3.06,0,1,0,1,0,0,0.047,0,2,0,3.046,37,5.06,5.068,0,0,4469048,0,0
4,1710382031589,14/03/2024 07:37:11.589,91.6667,4408,-99.993,49.031,24,41,1,0,0,0,0,0,0,0,0,1,0,0,0,0,0,0,0,0,0,0,4.7,94.8,92.1,3.2,1,1455519,2,3.081,53,0,0,37,37,0,0,3.064,8,,0,,27,0,0,3.019,3.066,0,3.019,0,36,0,37,0,3.069,55,0,0,1,0,0,256,,35,,3,0,,0,3.063,5718322,36,0,0,1,0,1710382031589,20000,,12337,3.078,0,0,0,0,4,0,12854,1489.218,0,3.051,3.059,3354936,53492,3.061,0,3,3.084,3.075,0,89,3.293,0,4106.56,16.262,37.2,,,0,37,0,99,36,3.084,0,,1,15,,12.173,0,48,51,0,,35,3.061,75000,,3.078,60,,1,3.068,4272433,0,22,1,0,3.068,,1,0,1,0,0,0.065,0,2,0,3.05,37,5.07,5.065,0,0,4469048,0,0
4,1710382025966,14/03/2024 07:37:05.966,95.8333,4422,-83.609,49.412,24,41,1,0,0,0,0,0,0,0,0,1,0,0,0,0,0,0,0,0,0,0,4.7,77.5,87.2,3.1,1,1455369,2,3.097,52,0,0,37,37,0,0,3.088,8,1,0,20,28,0,0,3.053,3.09,0,3.053,0,36,0,37,0,3.093,55,0,0,1,0,0,256,,35,0,3,0,0,0,3.092,5718322,36,0,0,1,0,1710382025966,20000,,12337,3.099,0,0,0,0,4,0,12854,1489.218,0,3.075,3.085,3354936,51548,3.08,0,3,3.099,3.1,0,89,3.294,0,4144.44,16.412,37.2,,3,0,37,0,99,35,3.102,0,115,1,14,,12.182,0,48,51,0,0,35,3.088,75000,4500,3.102,60,1,1,3.094,4272433,0,23,1,0,3.088,0,1,0,1,0,0,0.049,0,2,0,3.077,37,5.063,5.065,0,0,4469048,0,0
4,1710382020407,14/03/2024 07:37:00.407,91.6667,4408,-75.489,49.363,25,41,1,0,0,0,0,0,0,0,0,1,0,0,0,0,0,0,0,0,0,0,4.7,83.0,87.2,3.1,1,1455249,2,3.1,52,0,0,37,36,0,0,3.085,8,,0,,27,0,0,3.05,3.088,0,3.05,0,36,0,37,0,3.094,54,0,0,1,0,0,256,,35,,3,0,,0,3.088,5718322,36,0,0,1,0,1710382020407,20000,,12337,3.098,0,0,0,0,4,0,12854,1489.218,0,3.07,3.079,3354936,49606,3.087,0,6,3.094,3.094,0,89,3.293,0,4174.74,16.532,37.2,,,0,37,0,99,35,3.1,0,,1,2,,12.173,0,48,51,0,,35,3.083,75000,,3.096,59,,1,3.088,4272433,0,22,1,0,3.086,,1,0,1,0,0,0.05,0,2,0,3.068,37,5.078,5.065,0,0,4469048,0,0
4,1710382014806,14/03/2024 07:36:54.806,91.6667,4390,-115.527,48.664,41,42,1,0,0,0,0,0,0,0,0,1,0,0,0,0,0,0,0,0,0,0,4.6,115.2,103.9,3.2,0,1455096,2,3.056,52,0,0,37,36,0,0,3.041,8,,0,,27,0,0,2.994,3.046,0,2.994,0,36,0,36,0,3.052,54,0,0,1,0,0,256,,35,,3,0,,0,3.047,5718322,36,0,0,1,0,1710382014806,20000,,12337,3.057,0,0,0,0,4,0,12854,1489.218,0,3.017,3.036,3354936,47667,3.024,0,6,3.057,3.056,0,88,3.293,0,4213.38,16.685,37.2,,,0,37,0,99,35,3.057,0,,1,5,,12.178,0,48,51,0,,35,3.045,75000,,3.057,59,,1,3.05,4272433,0,22,1,0,3.04,,1,0,1,0,0,0.063,0,2,0,3.03,37,5.065,5.063,0,0,4469048,0,0
4,1710382009207,14/03/2024 07:36:49.207,95.8333,3962,-111.4,48.932,42,42,1,0,0,0,0,0,0,0,0,1,0,0,0,0,0,0,0,0,0,0,4.6,115.9,89.6,3.3,0,1454904,2,3.07,52,0,0,37,36,0,0,3.058,8,1,0,20,28,0,0,3.02,3.06,0,3.02,0,36,0,36,0,3.067,54,0,0,1,0,0,256,,35,0,3,0,0,0,3.062,5718322,36,0,0,1,0,1710382009207,20000,,12337,3.07,0,0,0,0,4,0,12854,1489.218,0,3.033,3.053,3354936,45726,3.053,0,6,3.073,3.073,0,88,3.287,0,4261.86,16.877,37.2,,3,0,37,0,99,35,3.074,0,115,1,14,,12.237,0,48,50,0,0,35,3.057,75000,4500,3.074,57,1,1,3.064,4272433,0,23,1,0,3.059,0,1,0,1,0,0,0.054,0,2,0,3.044,37,5.073,5.054,0,0,4469048,0,0
4,1710382003506,14/03/2024 07:36:43.506,91.6667,3706,-71.895,50.037,24,42,1,0,0,0,0,0,0,0,0,1,0,0,0,0,0,0,0,0,0,0,4.8,73.7,56.7,3.3,0,1454798,2,3.134,52,0,0,37,36,0,0,3.127,8,,0,,27,0,0,3.103,3.128,0,3.103,0,36,0,36,0,3.135,54,0,0,1,0,0,256,,35,,3,0,,0,3.129,5718322,36,0,0,1,0,1710382003506,20000,,12337,3.138,0,0,0,0,4,0,12854,1489.218,0,3.113,3.123,3354936,43746,3.116,0,6,3.135,3.136,0,88,3.293,0,4288.63,16.983,37.2,,,0,37,0,99,35,3.138,0,,1,5,,12.173,0,48,50,0,,35,3.127,75000,,3.137,57,,1,3.133,4272433,0,22,1,0,3.128,,1,0,1,0,0,0.035,0,2,0,3.122,37,5.07,5.065,0,0,4469048,0,0
4,1710381997946,14/03/2024 07:36:37.946,91.6667,3843,-49.684,50.3,14,43,1,0,0,0,0,0,0,0,0,1,0,0,0,0,0,0,0,0,0,0,4.9,50.9,65.7,3.2,0,1454705,2,3.148,52,0,0,37,36,0,0,3.143,8,,0,,23,0,0,3.121,3.146,0,3.121,0,36,0,36,0,3.148,54,0,0,1,0,0,256,,35,,3,0,,0,3.146,5718322,36,0,0,1,0,1710381997946,20000,,12337,3.15,0,0,0,0,4,0,12854,1489.218,0,3.136,3.138,3354936,41824,3.139,0,6,3.15,3.15,0,88,3.294,0,4312.12,17.076,37.2,,,0,37,0,99,35,3.156,0,,1,14,,12.178,0,48,50,0,,35,3.143,75000,,3.156,57,,1,3.148,4272433,0,22,1,0,3.143,,1,0,1,0,0,0.035,0,2,0,3.138,37,5.073,5.065,0,0,4469048,0,0
4,1710381992306,14/03/2024 07:36:32.306,95.8333,4324,-1.679,51.032,0,43,1,0,0,0,0,0,0,0,0,1,0,0,0,0,0,0,0,0,0,0,5.0,6549.8,74.2,2.8,0,1454659,2,3.192,52,0,0,37,36,0,0,3.189,7,1,0,20,28,0,0,3.185,3.19,0,3.185,0,36,0,36,0,3.194,54,0,0,1,0,0,256,,35,0,3,0,0,0,3.186,5718322,36,0,0,1,0,1710381992306,20000,,12337,3.195,0,0,0,0,4,0,12854,1489.211,0,3.186,3.185,3354936,39861,3.192,0,6,3.191,3.188,0,87,3.272,0,4321.96,17.115,37.2,,3,0,37,0,99,35,3.196,0,115,1,10,,12.182,0,48,50,0,0,35,3.185,75000,4500,3.191,58,1,1,3.196,4272433,0,23,1,0,3.189,0,1,0,1,0,0,0.011,0,2,0,3.187,37,5.053,5.028,0,0,4469048,0,0
4,1710381982466,14/03/2024 07:36:22.466,91.6667,4419,-80.394,49.643,32,43,1,0,0,0,0,0,0,0,0,1,0,0,0,0,0,0,0,0,0,0,4.8,75.5,80.3,3.2,0,1454438,2,3.107,51,0,0,37,36,0,0,3.102,8,,0,,27,0,0,3.071,3.105,0,3.071,0,36,0,36,0,3.112,53,0,0,1,0,0,256,,35,,3,0,,0,3.105,5718322,36,0,0,1,0,1710381982466,20000,,12337,3.116,0,0,0,0,4,0,12854,1489.211,0,3.086,3.101,3354936,36455,3.092,0,6,3.113,3.114,0,87,3.293,0,4377.77,17.336,37.2,,,0,37,0,99,35,3.116,0,,1,5,,12.237,0,48,50,0,,35,3.102,75000,,3.113,57,,1,3.106,4272433,0,22,1,0,3.102,,1,0,1,0,0,0.045,0,2,0,3.098,37,5.08,5.068,0,0,4469048,0,0
4,1710381976243,14/03/2024 07:36:16.243,20.8333,4151,,,32,,,,,,,,,,,,0,0,0,0,0,0,0,0,0,0,4.6,114.9,90.1,3.3,,,,,,0,,,,0,,,,,,,10,,,,,,,,,,,0,,,,,1,,,256,,,,3,0,,,,,,0,,,,1710381976243,,,,,,,,,,,,,0,,,,34275,,,,,,,86,,,,,,,,,,,,,,0,,1,,,,0,,50,,,,,,,,,,,,,,5,,0,,,,0,,,0,,,,,,,,,,0,,,
4,1710381970586,14/03/2024 07:36:10.586,91.6667,3480,-110.407,49.297,54,44,1,0,0,0,0,0,0,0,0,1,0,0,0,0,0,0,0,0,0,0,4.7,115.0,94.3,3.2,0,1454110,2,3.095,51,0,0,37,36,0,0,3.081,8,,0,,22,0,0,3.036,3.083,0,3.036,0,36,0,36,0,3.089,53,0,0,1,0,0,256,,35,,3,0,,0,3.088,5718322,36,0,0,1,0,1710381970586,20000,,12337,3.09,0,0,0,0,4,0,12854,1489.211,0,3.056,3.079,3354936,32326,3.071,0,6,3.094,3.098,0,86,3.287,0,4460.6,17.664,37.2,,,0,37,0,99,35,3.098,0,,1,9,,12.182,0,48,50,0,,35,3.082,75000,,3.097,55,,1,3.088,4272433,0,22,1,0,3.08,,1,0,1,0,0,0.062,0,2,0,3.071,37,5.055,5.026,0,0,4469048,0,0
4,1710381964505,14/03/2024 07:36:04.505,95.8333,4305,9.728,51.36,0,44,1,0,0,0,0,0,0,0,0,1,0,0,0,0,0,0,0,0,0,0,5.1,6538.0,87.4,2.7,0,1454074,2,3.211,51,0,0,37,36,0,0,3.21,7,1,0,20,23,0,0,3.206,3.208,0,3.208,0,36,0,36,0,3.212,53,0,0,1,0,0,256,,35,0,3,0,0,0,3.206,5718322,36,0,0,1,0,1710381964505,20000,,12337,3.215,0,0,0,0,4,0,12854,1489.195,0,3.209,3.206,3354936,30210,3.215,0,6,3.211,3.207,0,86,3.291,0,4465.65,17.684,37.2,,3,0,37,0,99,35,3.215,0,115,1,1,,12.165,0,48,50,0,0,35,3.208,75000,4500,3.212,56,1,1,3.215,4272433,0,23,1,0,3.209,0,1,0,1,0,0,0.009,0,2,0,3.208,37,5.075,5.065,0,0,4469048,0,0
4,1710381958926,14/03/2024 07:35:58.926,20.8333,3994,,,51,,,,,,,,,,,,0,0,0,0,0,0,0,0,0,0,4.7,115.2,94.2,3.3,,,,,,0,,,,0,,,,,,,5,,,,,,,,,,,0,,,,,1,,,256,,,,3,0,,,,,,0,,,,1710381958926,,,,,,,,,,,,,0,,,,28270,,,,,,,85,,,,,,,,,,,,,,0,,1,,,,0,,50,,,,,,,,,,,,,,5,,0,,,,0,,,0,,,,,,,,,,0,,,
4,1710381953280,14/03/2024 07:35:53.280,95.8333,2965,-109.25,49.455,88,45,1,0,0,0,0,0,0,0,0,1,0,0,0,0,0,0,0,0,0,0,4.7,115.1,101.4,2.8,0,1453736,2,3.104,51,0,0,37,36,0,0,3.09,8,1,0,20,28,0,0,3.047,3.092,0,3.047,0,36,0,36,0,3.098,53,0,0,1,0,0,256,,35,0,3,0,0,0,3.096,5718322,36,0,0,1,0,1710381953280,20000,,12337,3.102,0,0,0,0,4,0,12854,1489.195,0,3.071,3.09,3354936,26324,3.081,6,6,3.1,3.105,0,84,3.293,0,4551.01,18.022,37.2,,3,0,36,0,99,35,3.107,0,115,1,14,,12.182,0,48,50,0,0,35,3.091,75000,4500,3.107,53,1,0,3.096,4272433,0,23,1,0,3.091,0,1,0,1,0,0,0.06,0,2,0,3.084,37,5.06,5.065,0,0,4469048,0,0
4,1710381947626,14/03/2024 07:35:47.626,20.8333,2052,,,27,,,,,,,,,,,,0,0,0,0,0,0,0,0,0,0,5.0,44.9,71.7,1.8,,,,,,0,,,,0,,,,,,,5,,,,,,,,,,,0,,,,,1,,,256,,,,3,0,,,,,,0,,,,1710381947626,,,,,,,,,,,,,0,,,,24350,,,,,,,84,,,,,,,,,,,,,,0,,1,,,,0,,50,,,,,,,,,,,,,,5,,0,,,,0,,,0,,,,,,,,,,0,,,
4,1710381941926,14/03/2024 07:35:41.926,20.8333,3479,,,0,,,,,,,,,,,,0,0,0,0,0,0,0,0,0,0,5.2,6538.5,22.2,2.8,,,,,,0,,,,0,,,,,,,5,,,,,,,,,,,0,,,,,1,,,256,,,,3,0,,,,,,0,,,,1710381941926,,,,,,,,,,,,,0,,,,22371,,,,,,,84,,,,,,,,,,,,,,0,,1,,,,0,,50,,,,,,,,,,,,,,5,,0,,,,0,,,0,,,,,,,,,,0,,,
4,1710381935806,14/03/2024 07:35:35.806,91.6667,3892,-111.165,49.383,39,46,1,0,0,0,0,0,0,0,0,1,0,0,0,0,0,0,0,0,0,0,4.7,114.8,63.9,3.5,0,1453512,2,3.098,50,0,0,37,36,0,0,3.086,8,,0,,22,0,0,3.044,3.092,0,3.044,0,36,0,36,0,3.094,52,0,0,1,0,0,256,,35,,3,0,,0,3.085,5718322,36,0,0,1,0,1710381935806,20000,,12337,3.099,0,0,0,0,4,0,12854,1489.178,0,3.066,3.085,3354936,20249,3.077,6,6,3.099,3.104,0,84,3.291,0,4603.28,18.229,37.2,,,0,36,0,99,35,3.104,0,,1,9,,12.182,0,48,50,0,,35,3.088,75000,,3.101,53,,0,3.091,4272433,0,22,1,0,3.083,,1,0,1,0,0,0.06,0,2,0,3.077,37,5.058,5.028,0,0,4469048,0,0
4,1710381930186,14/03/2024 07:35:30.186,91.6667,3495,-109.096,49.495,65,46,1,0,0,0,0,0,0,0,0,1,0,0,0,0,0,0,0,0,0,0,4.7,115.5,97.9,3.2,0,1453425,2,3.105,50,0,0,37,36,0,0,3.093,8,,0,,22,0,0,3.05,3.098,0,3.05,0,36,0,36,0,3.1,52,0,0,1,0,0,256,,35,,3,0,,0,3.099,5718322,36,0,0,1,0,1710381930186,20000,,12337,3.104,0,0,0,0,4,0,12854,1489.178,0,3.073,3.089,3354936,18308,3.08,6,6,3.105,3.111,0,83,3.293,0,4625.25,18.316,37.2,,,0,36,0,99,35,3.111,0,,1,9,,12.263,0,48,50,0,,35,3.095,75000,,3.108,52,,0,3.098,4272433,0,22,1,0,3.095,,1,0,1,0,0,0.061,0,2,0,3.085,37,5.083,5.068,0,0,4469048,0,0
4,1710381924546,14/03/2024 07:35:24.546,95.8333,3795,17.305,52.105,0,46,1,0,0,0,0,0,0,0,0,1,0,0,0,0,0,0,0,0,0,0,5.2,6538.4,22.0,3.0,0,1453360,2,3.258,50,0,0,37,36,0,0,3.256,9,1,0,20,28,0,0,3.249,3.255,0,3.258,0,36,0,36,0,3.255,52,0,0,1,0,0,256,,35,0,3,0,0,0,3.257,5718322,36,0,0,1,0,1710381924546,20000,,12337,3.259,0,0,0,0,4,0,12854,1489.162,0,3.258,3.252,3354936,16364,3.262,6,6,3.258,3.249,0,83,3.289,0,4637.62,18.365,37.2,,3,0,36,0,99,35,3.262,0,115,1,1,,12.173,0,48,50,0,0,35,3.258,75000,4500,3.258,52,1,0,3.257,4272433,0,23,1,0,3.256,0,1,0,1,0,0,0.013,0,2,0,3.255,37,5.055,5.028,0,0,4469048,0,0
4,1710381918926,14/03/2024 07:35:18.926,20.8333,3705,,,41,,,,,,,,,,,,0,0,0,0,0,0,0,0,0,0,4.7,115.2,79.2,3.4,,,,,,0,,,,0,,,,,,,5,,,,,,,,,,,0,,,,,1,,,256,,,,3,0,,,,,,0,,,,1710381918926,,,,,,,,,,,,,0,,,,14391,,,,,,,83,,,,,,,,,,,,,,0,,1,,,,0,,50,,,,,,,,,,,,,,5,,0,,,,0,,,0,,,,,,,,,,0,,,
4,1710381913266,14/03/2024 07:35:13.266,91.6667,3151,-35.758,51.254,15,46,1,0,0,0,0,0,0,0,0,1,0,0,0,0,0,0,0,0,0,0,5.0,39.0,35.4,2.7,0,1453149,2,3.208,50,0,0,37,36,0,0,3.203,8,,0,,27,0,0,3.186,3.204,0,3.186,0,36,0,36,0,3.207,52,0,0,1,0,0,256,,35,,3,0,,0,3.205,5718322,36,0,0,1,0,1710381913266,20000,,12337,3.208,0,0,0,0,4,0,12854,1489.162,0,3.196,3.202,3354936,12444,3.201,6,6,3.208,3.207,0,82,3.294,0,4690.9,18.576,37.2,,,0,36,0,99,35,3.208,0,,1,2,,12.182,0,48,50,0,,35,3.205,75000,,3.208,51,,0,3.207,4272433,0,22,1,0,3.202,,1,0,1,0,0,0.022,0,2,0,3.2,37,5.073,5.065,0,0,4469048,0,0
4,1710381907567,14/03/2024 07:35:07.567,95.8333,2932,-42.567,51.073,16,47,1,0,0,0,0,0,0,0,0,1,0,0,0,0,0,0,0,0,0,0,5.0,46.0,46.3,2.6,0,1453094,2,3.199,51,0,0,37,36,0,0,3.192,8,1,0,20,28,0,0,3.174,3.192,0,3.174,0,36,0,36,0,3.196,52,0,0,1,0,0,256,,35,0,3,0,0,0,3.193,5718322,36,0,0,1,0,1710381907567,20000,,12337,3.198,0,0,0,0,4,0,12854,1489.162,0,3.184,3.187,3354936,10466,3.189,6,6,3.2,3.198,0,82,3.293,0,4704.79,18.631,37.2,,3,0,36,0,99,35,3.2,0,115,1,15,,12.178,0,48,50,0,0,35,3.192,75000,4500,3.198,50,1,0,3.194,4272433,0,23,1,0,3.192,0,1,0,1,0,0,0.026,0,2,0,3.187,37,5.06,5.068,0,0,4469048,0,0
4,1710381901966,14/03/2024 07:35:01.966,91.6667,1863,-39.28,51.379,25,47,1,0,0,0,0,0,0,0,0,1,0,0,0,0,0,0,0,0,0,0,5.0,40.3,69.9,1.7,0,1453001,2,3.217,50,0,0,37,36,0,0,3.211,8,,0,,27,0,0,3.194,3.212,0,3.194,0,36,0,36,0,3.214,52,0,0,1,0,0,256,,35,,3,0,,0,3.214,5718322,36,0,0,1,0,1710381901966,20000,,12337,3.216,0,0,0,0,4,0,12854,1489.162,0,3.202,3.209,3354936,8521,3.208,6,6,3.216,3.216,0,82,3.294,0,4728.28,18.724,37.2,,,0,36,0,99,35,3.217,0,,1,2,,12.178,0,48,50,0,,35,3.212,75000,,3.217,50,,0,3.214,4272433,0,22,1,0,3.211,,1,0,1,0,0,0.023,0,2,0,3.207,37,5.073,5.065,0,0,4469048,0,0
4,1710381894080,14/03/2024 07:34:54.080,91.6667,2188,-2.222,52.101,0,47,1,0,0,0,0,0,0,0,0,1,0,0,0,0,0,0,0,0,0,0,5.1,2.2,17.4,1.8,0,1452975,2,3.258,50,0,0,37,36,0,0,3.256,16,,0,,22,0,0,3.253,3.256,0,3.255,0,36,0,36,0,3.257,52,0,0,1,0,0,256,,35,,3,0,,0,3.257,5718322,36,0,0,1,0,1710381894080,20000,,12337,3.259,0,0,0,0,4,0,12854,1489.161,0,3.253,3.255,3354936,5768,3.257,6,6,3.258,3.254,0,82,3.291,0,4734.59,18.749,37.2,,,0,36,0,99,35,3.259,0,,1,5,,12.173,0,48,50,0,,35,3.256,75000,,3.258,50,,0,3.257,4272433,0,22,1,0,3.257,,1,0,1,0,0,0.006,0,2,0,3.254,37,5.055,5.026,0,0,4469048,0,0
4,1710381888486,14/03/2024 07:34:48.486,91.6667,1680,-40.734,51.345,27,47,1,0,0,0,0,0,0,0,0,1,0,0,0,0,0,0,0,0,0,0,5.0,40.3,91.1,1.6,0,1452937,2,3.215,50,0,0,37,36,0,0,3.209,8,,0,,22,0,0,3.194,3.209,0,3.194,0,36,0,36,0,3.211,52,0,0,1,0,0,256,,35,,3,0,,0,3.21,5718322,36,0,0,1,0,1710381888486,20000,,12337,3.213,0,0,0,0,4,0,12854,1489.161,0,3.199,3.207,3354936,3838,3.206,6,6,3.214,3.214,0,82,3.296,0,4744.19,18.787,37.2,,,0,36,0,99,35,3.216,0,,1,14,,12.275,0,48,50,0,,35,3.211,75000,,3.216,50,,0,3.212,4272433,0,22,1,0,3.208,,1,0,1,0,0,0.022,0,2,0,3.206,37,5.088,5.072,0,0,4469048,0,0
4,1710381882826,14/03/2024 07:34:42.826,20.8333,1432,,,0,,,,,,,,,,,,0,0,0,0,0,0,0,0,0,0,5.2,6538.9,41.6,1.1,,,,,,0,,,,0,,,,,,,5,,,,,,,,,,,0,,,,,1,,,256,,,,3,0,,,,,,0,,,,1710381882826,,,,,,,,,,,,,0,,,,1864,,,,,,,82,,,,,,,,,,,,,,0,,1,,,,0,,50,,,,,,,,,,,,,,5,,0,,,,0,,,0,,,,,,,,,,0,,,
4,1710381877109,14/03/2024 07:34:37.109,91.6667,2444,-82.995,50.28,38,47,1,0,0,0,0,0,0,0,0,1,0,0,0,0,0,0,0,0,0,0,4.8,85.3,110.2,2.3,0,1452874,2,3.151,50,0,0,37,36,0,0,3.142,8,,0,,27,0,0,3.114,3.145,0,3.114,0,36,0,36,0,3.147,52,0,0,1,0,0,256,,35,,3,0,,0,3.144,5718322,36,0,0,1,0,1710381877109,20000,,12337,3.153,0,0,0,0,4,0,12854,1489.137,0,3.127,3.14,3354936,65421,3.136,6,6,3.152,3.153,0,82,3.266,0,4754.04,18.826,37.2,,,0,36,0,99,35,3.153,0,,1,5,,12.173,0,48,50,0,,35,3.141,75000,,3.153,50,,0,3.147,4272433,0,22,1,0,3.14,,1,0,1,0,0,0.039,0,2,0,3.137,37,5.05,5.028,0,0,4469048,0,0
4,1710381871519,14/03/2024 07:34:31.519,91.6667,757,7.198,52.466,0,47,1,0,0,0,0,0,0,0,0,1,0,0,0,0,0,0,0,0,0,0,5.2,6546.2,40.3,0.6,0,1452799,2,3.279,50,0,0,37,36,0,0,3.279,9,,0,,22,0,0,3.276,3.278,0,3.28,0,36,0,36,0,3.279,53,0,0,1,0,0,256,,35,,3,0,,0,3.279,5718322,36,0,0,1,0,1710381871519,20000,,12337,3.28,0,0,0,0,4,0,12854,1489.137,0,3.278,3.277,3354936,63475,3.281,6,6,3.28,3.276,0,82,3.295,0,4772.97,18.901,37.2,,,0,36,0,99,35,3.281,0,,1,1,,12.178,0,48,50,0,,35,3.28,75000,,3.281,50,,0,3.28,4272433,0,22,1,0,3.279,,1,0,1,0,0,0.005,0,2,0,3.279,37,5.08,5.068,0,0,4469048,0,0
4,1710381840620,14/03/2024 07:34:00.620,91.6667,897,-41.113,51.479,45,48,1,0,0,0,0,0,0,0,0,1,0,0,0,0,0,0,0,0,0,0,5.0,40.6,95.8,1.0,0,1452575,2,3.221,50,0,0,36,36,0,0,3.217,8,,0,,22,0,0,3.202,3.218,0,3.202,0,36,0,36,0,3.22,53,0,0,1,0,0,256,,35,,3,0,,0,3.219,5718322,36,0,0,1,0,1710381840620,20000,,12337,3.222,0,0,0,0,4,0,12854,1489.125,0,3.208,3.217,3354936,52752,3.214,6,2,3.221,3.224,0,82,3.293,0,4826.51,19.113,37.2,,,0,36,0,99,35,3.224,0,,1,9,,12.165,0,48,50,0,,35,3.219,75000,,3.223,50,,0,3.22,4272433,0,22,1,0,3.216,,1,0,1,0,0,0.022,0,2,0,3.215,36,5.073,5.065,0,0,4469048,0,0
4,1710381834299,14/03/2024 07:33:54.299,91.6667,1765,17.07,52.611,0,48,1,0,0,0,0,0,0,0,0,1,0,0,0,0,0,0,0,0,0,0,5.2,6535.8,29.3,1.4,0,1452569,2,3.288,51,0,0,36,36,0,0,3.288,9,,0,,26,0,0,3.284,3.287,0,3.292,0,36,0,36,0,3.287,53,0,0,1,0,0,256,,35,,3,0,,0,3.288,5718322,36,0,0,1,0,1710381834299,20000,,12337,3.288,0,0,0,0,4,0,12854,1489.115,0,3.288,3.285,3354936,50567,3.292,6,2,3.288,3.284,0,82,3.293,0,4825.5,19.109,37.2,,,0,36,0,99,35,3.292,0,,1,1,,12.173,0,48,50,0,,35,3.288,75000,,3.289,50,,0,3.29,4272433,0,22,1,0,3.288,,1,0,1,0,0,0.008,0,2,0,3.289,36,5.07,5.065,0,0,4469048,0,0
4,1710381827946,14/03/2024 07:33:47.946,95.8333,2306,-19.22,51.765,9,48,1,0,0,0,0,0,0,0,0,1,0,0,0,0,0,0,0,0,0,0,5.1,19.7,37.1,1.9,0,1452542,2,3.238,51,0,0,36,36,0,0,3.235,8,1,0,20,28,0,0,3.227,3.237,0,3.227,0,36,0,36,0,3.237,53,0,0,1,0,0,256,,35,0,3,0,0,0,3.237,5718322,36,0,0,1,0,1710381827946,20000,,12337,3.238,0,0,0,0,4,0,12854,1489.111,0,3.229,3.234,3354936,48379,3.233,6,2,3.239,3.236,0,83,3.293,0,4831.31,19.132,37.2,,3,0,36,0,99,35,3.239,0,115,1,14,,12.173,0,48,50,0,0,35,3.236,75000,4500,3.239,50,1,0,3.237,4272433,0,23,1,0,3.235,0,1,0,1,0,0,0.012,0,2,0,3.233,36,5.07,5.065,0,0,4469048,0,0
4,1710381822330,14/03/2024 07:33:42.330,20.8333,2934,,,17,,,,,,,,,,,,0,0,0,0,0,0,0,0,0,0,5.0,39.1,41.8,2.5,,,,,,0,,,,0,,,,,,,10,,,,,,,,,,,0,,,,,1,,,256,,,,3,0,,,,,,0,,,,1710381822330,,,,,,,,,,,,,0,,,,46409,,,,,,,83,,,,,,,,,,,,,,0,,1,,,,0,,50,,,,,,,,,,,,,,5,,0,,,,0,,,0,,,,,,,,,,0,,,
4,1710381816706,14/03/2024 07:33:36.706,91.6667,2745,-24.954,51.736,11,48,1,0,0,0,0,0,0,0,0,1,0,0,0,0,0,0,0,0,0,0,5.1,23.5,19.9,2.4,0,1452455,2,3.236,51,0,0,36,36,0,0,3.233,8,,0,,22,0,0,3.224,3.231,0,3.224,0,36,0,36,0,3.234,53,0,0,1,0,0,256,,35,,3,0,,0,3.236,5718322,36,0,0,1,0,1710381816706,20000,,12337,3.237,0,0,0,0,4,0,12854,1489.107,0,3.228,3.231,3354936,44459,3.231,6,2,3.237,3.237,0,83,3.293,0,4852.27,19.215,37.2,,,0,36,0,99,35,3.238,0,,1,14,,12.169,0,48,50,0,,35,3.236,75000,,3.238,50,,0,3.237,4272433,0,22,1,0,3.232,,1,0,1,0,0,0.014,0,2,0,3.231,36,5.075,5.065,0,0,4469048,0,0
4,1710381810666,14/03/2024 07:33:30.666,95.8333,3030,-0.921,52.071,0,48,1,0,0,0,0,0,0,0,0,1,0,0,0,0,0,0,0,0,0,0,5.1,6553.5,19.5,2.5,0,1452428,2,3.257,51,0,0,36,36,0,0,3.254,8,1,0,20,28,0,0,3.251,3.254,0,3.251,0,36,0,36,0,3.256,53,0,0,1,0,0,256,,35,0,3,0,0,0,3.254,5718322,36,0,0,1,0,1710381810666,20000,,12337,3.257,0,0,0,0,4,0,12854,1489.107,0,3.252,3.252,3354936,42378,3.256,6,2,3.254,3.254,0,83,3.294,0,4859.09,19.242,37.2,,3,0,36,0,99,35,3.257,0,115,1,2,,12.258,0,48,50,0,0,35,3.255,75000,4500,3.257,50,1,0,3.255,4272433,0,23,1,0,3.255,0,1,0,1,0,0,0.006,0,2,0,3.252,36,5.083,5.068,0,0,4469048,0,0
4,1710381805086,14/03/2024 07:33:25.086,91.6667,3019,-30.627,51.412,13,48,1,0,0,0,0,0,0,0,0,1,0,0,0,0,0,0,0,0,0,0,5.0,33.3,44.3,2.6,0,1452384,2,3.217,51,0,0,36,36,0,0,3.213,8,,0,,22,0,0,3.2,3.214,0,3.2,0,36,0,36,0,3.215,53,0,0,1,0,0,256,,35,,3,0,,0,3.215,5718322,36,0,0,1,0,1710381805086,20000,,12337,3.219,0,0,0,0,4,0,12854,1489.107,0,3.207,3.211,3354936,40433,3.21,6,2,3.217,3.217,0,84,3.294,0,4870.2,19.286,37.2,,,0,36,0,99,35,3.219,0,,1,5,,12.178,0,48,50,0,,35,3.214,75000,,3.218,51,,0,3.217,4272433,0,22,1,0,3.212,,1,0,1,0,0,0.019,0,2,0,3.209,36,5.073,5.065,0,0,4469048,0,0
4,1710381799406,14/03/2024 07:33:19.406,91.6667,2503,-40.427,51.364,19,48,1,0,0,0,0,0,0,0,0,1,0,0,0,0,0,0,0,0,0,0,5.0,40.6,41.7,2.2,0,1452322,2,3.214,51,0,0,36,36,0,0,3.21,8,,0,,22,0,0,3.191,3.21,0,3.191,0,36,0,36,0,3.214,53,0,0,1,0,0,256,,35,,3,0,,0,3.211,5718322,36,0,0,1,0,1710381799406,20000,,12337,3.217,0,0,0,0,4,0,12854,1489.107,0,3.202,3.21,3354936,38457,3.207,6,2,3.215,3.214,0,84,3.268,0,4885.85,19.348,37.2,,,0,36,0,99,35,3.217,0,,1,5,,12.178,0,48,50,0,,35,3.212,75000,,3.216,50,,0,3.215,4272433,0,22,1,0,3.21,,1,0,1,0,0,0.026,0,2,0,3.206,36,5.05,5.028,0,0,4469048,0,0
4,1710381793746,14/03/2024 07:33:13.746,95.8333,2314,3.297,52.211,0,48,1,0,0,0,0,0,0,0,0,1,0,0,0,0,0,0,0,0,0,0,5.2,6549.9,19.8,1.8,0,1452302,2,3.265,51,0,0,36,36,0,0,3.263,7,1,0,20,23,0,0,3.261,3.262,0,3.261,0,35,0,36,0,3.264,53,0,0,1,0,0,256,,34,0,3,0,0,0,3.264,5718322,36,0,0,1,0,1710381793746,20000,,12337,3.265,0,0,0,0,4,0,12854,1489.107,0,3.261,3.261,3354936,36502,3.265,6,3,3.264,3.261,0,84,3.282,0,4890.9,19.368,37.2,,3,0,36,0,99,35,3.266,0,115,1,10,,12.22,0,48,50,0,0,34,3.263,75000,4500,3.265,51,1,0,3.266,4272433,0,23,1,0,3.263,0,1,0,1,0,0,0.005,0,2,0,3.261,36,5.068,5.049,0,0,4469048,0,0
4,1710381788126,14/03/2024 07:33:08.126,45.8333,1795,,,21,,,,,,,,,,,,0,0,0,0,0,0,0,0,0,0,5.0,32.5,62.9,1.6,,1452254,,,,0,,,,0,,,,,,,16,,,,,,,,,,,0,,,,,1,,,256,,,,3,0,,,,5718322,,0,,,,1710381788126,20000,,12337,,,,,,,,12854,1489.107,0,,,3354936,34539,,,,,,,84,3.273,,4903.03,,37.2,,,,,,,,,0,,1,,,12.173,0,,50,,,,,75000,,,,,,,4272433,,11,,0,,,,0,,,0,,,,,,,5.05,5.026,,0,4469048,,
4,1710381782435,14/03/2024 07:33:02.435,91.6667,1187,-46.243,51.351,40,49,1,0,0,0,0,0,0,0,0,1,0,0,0,0,0,0,0,0,0,0,5.0,45.5,87.5,1.2,0,1452220,2,3.214,51,0,0,36,36,0,0,3.209,8,,0,,27,0,0,3.19,3.211,0,3.19,0,35,0,36,0,3.214,53,0,0,1,0,0,256,,34,,3,0,,0,3.212,5718322,36,0,0,1,0,1710381782435,20000,,12337,3.214,0,0,0,0,4,0,12854,1489.107,0,3.199,3.208,3354936,32563,3.206,0,3,3.214,3.216,0,84,3.294,0,4911.61,19.45,37.2,,,0,36,0,99,35,3.216,0,,1,9,,12.169,0,48,50,0,,34,3.21,75000,,3.216,51,,0,3.212,4272433,0,22,1,0,3.209,,1,0,1,0,0,0.026,0,2,0,3.206,36,5.073,5.065,0,0,4469048,0,0
4,1710381776796,14/03/2024 07:32:56.796,95.8333,2761,1.228,52.151,0,49,1,0,0,0,0,0,0,0,0,1,0,0,0,0,0,0,0,0,0,0,5.2,6551.3,9.5,2.2,0,1452220,2,3.261,51,0,0,36,36,0,0,3.259,7,1,0,20,28,0,0,3.255,3.258,0,3.256,0,35,0,36,0,3.26,53,0,0,1,0,0,256,,34,0,3,0,0,0,3.261,5718322,36,0,0,1,0,1710381776796,20000,,12337,3.261,0,0,0,0,4,0,12854,1489.091,0,3.259,3.255,3354936,30614,3.26,6,3,3.261,3.259,0,84,3.294,0,4907.57,19.434,37.2,,3,0,36,0,99,35,3.262,0,115,1,14,,12.178,0,48,50,0,0,34,3.26,75000,4500,3.262,51,1,0,3.261,4272433,0,23,1,0,3.259,0,1,0,1,0,0,0.007,0,2,0,3.258,36,5.075,5.068,0,0,4469048,0,0
4,1710381771166,14/03/2024 07:32:51.166,91.6667,2865,-28.938,51.469,12,49,1,0,0,0,0,0,0,0,0,1,0,0,0,0,0,0,0,0,0,0,5.0,29.1,38.0,2.4,0,1452197,2,3.219,51,0,0,36,36,0,0,3.216,8,,0,,27,0,0,3.205,3.217,0,3.205,0,35,0,36,0,3.218,53,0,0,1,0,0,256,,34,,3,0,,0,3.219,5718322,36,0,0,1,0,1710381771166,20000,,12337,3.222,0,0,0,0,4,0,12854,1489.091,0,3.209,3.215,3354936,28672,3.215,6,3,3.222,3.219,0,84,3.293,0,4913.38,19.457,37.2,,,0,36,0,99,35,3.222,0,,1,5,,12.173,0,48,50,0,,34,3.218,75000,,3.222,52,,0,3.219,4272433,0,22,1,0,3.216,,1,0,1,0,0,0.017,0,2,0,3.214,36,5.07,5.065,0,0,4469048,0,0
4,1710381765574,14/03/2024 07:32:45.574,91.6667,2652,17.223,52.401,0,49,1,0,0,0,0,0,0,0,0,1,0,0,0,0,0,0,0,0,0,0,5.2,6535.6,20.0,2.1,0,1452166,2,3.275,51,0,0,36,36,0,0,3.275,9,,0,,23,0,0,3.27,3.273,0,3.278,0,35,0,36,0,3.275,53,0,0,1,0,0,256,,34,,3,0,,0,3.276,5718322,36,0,0,1,0,1710381765574,20000,,12337,3.275,0,0,0,0,4,0,12854,1489.085,0,3.276,3.272,3354936,26724,3.278,6,3,3.274,3.27,0,84,3.295,0,4919.69,19.482,37.2,,,0,36,0,99,35,3.278,0,,1,1,,12.267,0,48,50,0,,34,3.276,75000,,3.277,52,,0,3.277,4272433,0,22,1,0,3.274,,1,0,1,0,0,0.008,0,2,0,3.275,36,5.085,5.07,0,0,4469048,0,0
4,1710381759126,14/03/2024 07:32:39.126,91.6667,2655,-32.46,51.348,15,49,1,0,0,0,0,0,0,0,0,1,0,0,0,0,0,0,0,0,0,0,5.0,31.9,36.3,2.3,0,1452112,2,3.214,51,0,0,36,36,0,0,3.209,8,,0,,27,0,0,3.196,3.21,0,3.196,0,35,0,36,0,3.211,53,0,0,1,0,0,256,,34,,3,0,,0,3.21,5718322,36,0,0,1,0,1710381759126,20000,,12337,3.216,0,0,0,0,4,0,12854,1489.083,0,3.202,3.206,3354936,24476,3.207,6,3,3.214,3.212,0,84,3.278,0,4932.82,19.534,37.2,,,0,36,0,99,35,3.216,0,,1,5,,12.173,0,48,50,0,,34,3.209,75000,,3.214,52,,0,3.212,4272433,0,22,1,0,3.209,,1,0,1,0,0,0.02,0,2,0,3.206,36,5.053,5.026,0,0,4469048,0,0
4,1710381753486,14/03/2024 07:32:33.486,95.8333,2470,11.786,52.235,0,49,1,0,0,0,0,0,0,0,0,1,0,0,0,0,0,0,0,0,0,0,5.2,6541.5,13.3,1.9,0,1452078,2,3.266,51,0,0,36,36,0,0,3.264,7,1,0,20,28,0,0,3.261,3.263,0,3.265,0,35,0,36,0,3.265,53,0,0,1,0,0,256,,34,0,3,0,0,0,3.265,5718322,36,0,0,1,0,1710381753486,20000,,12337,3.265,0,0,0,0,4,0,12854,1489.083,0,3.264,3.261,3354936,22530,3.268,6,3,3.266,3.261,0,84,3.293,0,4941.41,19.568,37.2,,3,0,36,0,99,35,3.268,0,115,1,1,,12.178,0,48,50,0,0,34,3.265,75000,4500,3.267,53,1,0,3.265,4272433,0,23,1,0,3.265,0,1,0,1,0,0,0.007,0,2,0,3.264,36,5.078,5.068,0,0,4469048,0,0
4,1710381747886,14/03/2024 07:32:27.886,91.6667,2614,-44.861,50.899,19,49,1,0,0,0,0,0,0,0,0,1,0,0,0,0,0,0,0,0,0,0,5.0,44.0,59.3,2.3,0,1452038,2,3.188,51,0,0,36,36,0,0,3.181,8,,0,,22,0,0,3.159,3.183,0,3.159,0,35,0,36,0,3.187,53,0,0,1,0,0,256,,34,,3,0,,0,3.182,5718322,35,0,0,1,0,1710381747886,20000,,12337,3.188,0,0,0,0,4,0,12854,1489.082,0,3.172,3.177,3354936,20585,3.178,6,3,3.186,3.187,0,84,3.294,0,4951.26,19.607,37.2,,,0,36,0,99,35,3.188,0,,1,2,,12.169,0,48,50,0,,34,3.183,75000,,3.188,53,,0,3.184,4272433,0,22,1,0,3.182,,1,0,1,0,0,0.029,0,2,0,3.175,36,5.075,5.068,0,0,4469048,0,0
4,1710381742226,14/03/2024 07:32:22.226,91.6667,2490,-20.213,51.409,10,49,1,0,0,0,0,0,0,0,0,1,0,0,0,0,0,0,0,0,0,0,5.1,20.7,30.3,2.1,0,1451989,2,3.217,51,0,0,36,36,0,0,3.213,8,,0,,27,0,0,3.202,3.214,0,3.202,0,35,0,36,0,3.215,53,0,0,1,0,0,256,,34,,3,0,,0,3.214,5718322,35,0,0,1,0,1710381742226,20000,,12337,3.217,0,0,0,0,4,0,12854,1489.082,0,3.206,3.209,3354936,18614,3.211,6,3,3.218,3.215,0,84,3.275,0,4963.63,19.656,37.2,,,0,36,0,99,35,3.219,0,,1,14,,12.203,0,48,50,0,,34,3.213,75000,,3.219,53,,0,3.216,4272433,0,22,1,0,3.212,,1,0,1,0,0,0.017,0,2,0,3.211,36,5.058,5.04,0,0,4469048,0,0
4,1710381735666,14/03/2024 07:32:15.666,91.6667,2136,-82.227,50.117,69,49,1,0,0,0,0,0,0,0,0,1,0,0,0,0,0,0,0,0,0,0,4.8,85.2,121.6,2.1,0,1451903,2,3.141,51,0,0,36,36,0,0,3.132,8,,0,,27,0,0,3.105,3.132,0,3.105,0,35,0,36,0,3.136,53,0,0,1,0,0,256,,34,,3,0,,0,3.135,5718322,35,0,0,1,0,1710381735666,20000,,12337,3.14,0,0,0,0,4,0,12854,1489.082,0,3.112,3.13,3354936,16352,3.126,6,3,3.143,3.143,0,83,3.293,0,4985.35,19.742,37.2,,,0,36,0,99,35,3.145,0,,1,14,,12.169,0,48,49,0,,34,3.136,75000,,3.145,54,,0,3.138,4272433,0,22,1,0,3.131,,1,0,1,0,0,0.04,0,2,0,3.124,36,5.068,5.068,0,0,4469048,0,0
4,1710381730086,14/03/2024 07:32:10.086,95.8333,2209,19.978,52.333,0,49,1,0,0,0,0,0,0,0,0,1,0,0,0,0,0,0,0,0,0,0,5.2,6533.8,30.8,1.8,0,1451849,2,3.271,51,0,0,36,36,0,0,3.27,7,1,0,20,28,0,0,3.266,3.27,0,3.273,0,35,0,36,0,3.271,53,0,0,1,0,0,256,,34,0,3,0,0,0,3.27,5718322,35,0,0,1,0,1710381730086,20000,,12337,3.271,0,0,0,0,4,0,12854,1489.068,0,3.272,3.266,3354936,14408,3.276,6,3,3.27,3.266,0,83,3.29,0,4995.45,19.782,37.2,,3,0,36,0,99,35,3.276,0,115,1,1,,12.173,0,48,49,0,0,34,3.271,75000,4500,3.273,54,1,0,3.272,4272433,0,23,1,0,3.271,0,1,0,1,0,0,0.01,0,2,0,3.27,36,5.055,5.026,0,0,4469048,0,0
4,1710381723246,14/03/2024 07:32:03.246,20.8333,3064,,,12,,,,,,,,,,,,0,0,0,0,0,0,0,0,0,0,5.0,29.8,39.2,2.6,,,,,,0,,,,0,,,,,,,10,,,,,,,,,,,0,,,,,1,,,256,,,,3,0,,,,,,0,,,,1710381723246,,,,,,,,,,,,,0,,,,12021,,,,,,,82,,,,,,,,,,,,,,0,,1,,,,0,,49,,,,,,,,,,,,,,5,,0,,,,0,,,0,,,,,,,,,,0,,,
4,1710381717626,14/03/2024 07:31:57.626,95.8333,2471,-90.04,49.849,40,50,1,0,0,0,0,0,0,0,0,1,0,0,0,0,0,0,0,0,0,0,4.8,94.6,117.8,2.3,0,1451669,2,3.129,51,0,0,36,35,0,0,3.115,8,1,0,20,28,0,0,3.08,3.116,0,3.08,0,35,0,35,0,3.121,52,0,0,1,0,0,256,,34,0,3,0,0,0,3.121,5718322,35,0,0,1,0,1710381717626,20000,,12337,3.128,0,0,0,0,4,0,12854,1489.062,0,3.098,3.112,3354936,10077,3.106,6,6,3.128,3.129,0,81,3.295,0,5039.39,19.956,37.2,,3,0,36,0,99,35,3.129,0,115,1,2,,12.246,0,48,49,0,0,34,3.113,75000,4500,3.126,54,1,0,3.12,4272433,0,23,1,0,3.113,0,1,0,1,0,0,0.049,0,2,0,3.109,36,5.083,5.07,0,0,4469048,0,0
4,1710381711970,14/03/2024 07:31:51.970,79.1667,3513,18.145,52.051,0,50,1,0,0,0,0,0,0,0,0,1,0,0,0,0,0,0,0,0,0,0,5.2,6536.5,32.7,2.7,0,1451608,2,3.254,50,0,0,36,35,0,0,3.253,9,,0,,19,0,0,3.248,3.253,0,3.253,0,35,0,35,0,3.254,52,0,0,1,0,0,256,,34,,3,0,,0,3.253,5718322,35,0,0,1,0,1710381711970,,,12337,3.254,0,0,0,0,4,0,,1489.049,0,3.254,3.25,,8113,3.257,6,6,3.254,3.248,0,81,3.293,0,,20.004,,,,0,36,0,99,35,3.257,0,,1,1,,12.173,0,48,49,0,,34,3.253,,,3.256,54,,0,3.255,,0,19,1,0,3.252,,1,0,1,0,0,0.009,0,2,0,3.251,36,5.063,5.065,0,0,4469048,0,0
4,1710381705987,14/03/2024 07:31:45.987,91.6667,3997,-114.769,49.263,64,50,1,0,0,0,0,0,0,0,0,1,0,0,0,0,0,0,0,0,0,0,4.7,114.2,95.0,3.3,0,1451449,2,3.091,50,0,0,36,35,0,0,3.078,8,,0,,22,0,0,3.038,3.081,0,3.038,0,35,0,35,0,3.088,52,0,0,1,0,0,256,,34,,3,0,,0,3.085,5718322,35,0,0,1,0,1710381705987,20000,,12337,3.094,0,0,0,0,4,0,12854,1489.049,0,3.054,3.079,3354936,6045,3.061,6,6,3.092,3.096,0,80,3.293,0,5091.66,20.163,37.2,,,0,36,0,99,35,3.096,0,,1,9,,12.173,0,48,49,0,,34,3.081,75000,,3.093,53,,0,3.084,4272433,0,22,1,0,3.079,,1,0,1,0,0,0.058,0,2,0,3.067,36,5.07,5.065,0,0,4469048,0,0
4,1710381697306,14/03/2024 07:31:37.306,91.6667,2689,-100.065,50.032,94,51,1,0,0,0,0,0,0,0,0,1,0,0,0,0,0,0,0,0,0,0,4.8,105.9,113.6,2.6,0,1451208,2,3.14,51,0,0,36,35,0,0,3.127,8,,0,,22,0,0,3.089,3.132,0,3.089,0,35,0,35,0,3.134,52,0,0,1,0,0,256,,34,,3,0,,0,3.131,5718322,35,0,0,1,0,1710381697306,20000,,12337,3.137,0,0,0,0,4,0,12854,1489.049,0,3.106,3.127,3354936,3076,3.116,14,6,3.134,3.143,0,79,3.293,0,5152.52,20.404,37.2,,,0,36,0,99,35,3.143,0,,1,9,,12.178,0,48,48,0,,34,3.127,75000,,3.138,50,,0,3.131,4272433,0,22,1,0,3.125,,1,0,1,0,0,0.054,0,2,0,3.122,36,5.06,5.07,0,0,4469048,0,0
4,1710381691706,14/03/2024 07:31:31.706,91.6667,2065,3.061,52.319,0,51,1,0,0,0,0,0,0,0,0,1,0,0,0,0,0,0,0,0,0,0,5.2,6549.5,35.8,1.6,0,1451146,2,3.271,51,0,0,36,35,0,0,3.269,7,,0,,30,0,0,3.267,3.268,0,3.268,0,35,0,35,0,3.27,52,0,0,1,0,0,256,,34,,3,0,,0,3.271,5718322,35,0,0,1,0,1710381691706,20000,,12337,3.271,0,0,0,0,4,0,12854,1489.049,0,3.268,3.267,3354936,1135,3.272,14,6,3.271,3.268,0,79,3.294,0,5168.18,20.466,37.2,,,0,36,0,99,34,3.273,0,,1,14,,12.173,0,48,48,0,,34,3.271,75000,,3.273,50,,0,3.271,4272433,0,22,1,0,3.27,,1,0,1,0,0,0.006,0,2,0,3.269,36,5.063,5.07,0,0,4469048,0,0
4,1710381686046,14/03/2024 07:31:26.046,20.8333,2074,,,0,,,,,,,,,,,,0,0,0,0,0,0,0,0,0,0,5.2,6543.3,11.5,1.6,,,,,,0,,,,0,,,,,,,5,,,,,,,,,,,0,,,,,1,,,256,,,,3,0,,,,,,0,,,,1710381686046,,,,,,,,,,,,,0,,,,64697,,,,,,,79,,,,,,,,,,,,,,0,,1,,,,0,,48,,,,,,,,,,,,,,5,,0,,,,0,,,0,,,,,,,,,,0,,,
4,1710381680446,14/03/2024 07:31:20.446,20.8333,2582,,,17,,,,,,,,,,,,0,0,0,0,0,0,0,0,0,0,5.0,37.5,37.5,2.2,,,,,,0,,,,0,,,,,,,10,,,,,,,,,,,0,,,,,1,,,256,,,,3,0,,,,,,0,,,,1710381680446,,,,,,,,,,,,,0,,,,62753,,,,,,,79,,,,,,,,,,,,,,0,,1,,,,0,,48,,,,,,,,,,,,,,5,,0,,,,0,,,0,,,,,,,,,,0,,,
4,1710381674806,14/03/2024 07:31:14.806,91.6667,2946,-22.896,51.654,9,51,1,0,0,0,0,0,0,0,0,1,0,0,0,0,0,0,0,0,0,0,5.1,21.8,47.4,2.4,0,1451071,2,3.233,50,0,0,36,35,0,0,3.228,8,,0,,23,0,0,3.217,3.23,0,3.217,0,35,0,35,0,3.229,52,0,0,1,0,0,256,,34,,3,0,,0,3.231,5718322,35,0,0,1,0,1710381674806,20000,,12337,3.231,0,0,0,0,4,0,12854,1489.045,0,3.223,3.225,3354936,60803,3.228,14,6,3.233,3.231,0,79,3.292,0,5186.11,20.537,37.2,,,0,36,0,99,34,3.233,0,,1,2,,12.169,0,48,48,0,,34,3.227,75000,,3.233,50,,0,3.229,4272433,0,22,1,0,3.229,,1,0,1,0,0,0.016,0,2,0,3.225,36,5.07,5.065,0,0,4469048,0,0
4,1710381669066,14/03/2024 07:31:09.066,91.6667,2656,-29.706,51.681,14,52,1,0,0,0,0,0,0,0,0,1,0,0,0,0,0,0,0,0,0,0,5.1,29.2,34.7,2.3,0,1451003,2,3.233,51,0,0,36,35,0,0,3.23,8,,0,,27,0,0,3.217,3.23,0,3.217,0,35,0,35,0,3.233,52,0,0,1,0,0,256,,34,,3,0,,0,3.231,5718322,35,0,0,1,0,1710381669066,20000,,12337,3.233,0,0,0,0,4,0,12854,1489.045,0,3.222,3.229,3354936,58827,3.229,14,6,3.232,3.234,0,79,3.285,0,5203.28,20.605,37.2,,,0,36,0,99,34,3.236,0,,1,14,,12.182,0,48,48,0,,34,3.231,75000,,3.236,50,,0,3.233,4272433,0,22,1,0,3.23,,1,0,1,0,0,0.019,0,2,0,3.228,36,5.055,5.028,0,0,4469048,0,0
4,1710381663306,14/03/2024 07:31:03.306,91.6667,2505,-35.061,51.446,16,52,1,0,0,0,0,0,0,0,0,1,0,0,0,0,0,0,0,0,0,0,5.0,32.7,57.8,2.2,0,1450953,2,3.218,50,0,0,36,35,0,0,3.215,8,,0,,26,0,0,3.201,3.214,0,3.201,0,35,0,35,0,3.217,52,0,0,1,0,0,256,,34,,3,0,,0,3.219,5718322,35,0,0,1,0,1710381663306,20000,,12337,3.219,0,0,0,0,4,0,12854,1489.045,0,3.209,3.213,3354936,56814,3.217,14,6,3.222,3.218,0,79,3.293,0,5215.9,20.655,37.2,,,0,36,0,99,34,3.223,0,,1,14,,12.173,0,48,48,0,,34,3.216,75000,,3.223,50,,0,3.217,4272433,0,22,1,0,3.21,,1,0,1,0,0,0.022,0,2,0,3.213,36,5.07,5.065,0,0,4469048,0,0
4,1710381657588,14/03/2024 07:30:57.588,91.6667,1831,-44.175,51.429,28,52,1,0,0,0,0,0,0,0,0,1,0,0,0,0,0,0,0,0,0,0,5.0,44.9,88.0,1.7,0,1450885,2,3.216,51,0,0,36,35,0,0,3.214,8,,0,,27,0,0,3.197,3.214,0,3.197,0,35,0,35,0,3.216,52,0,0,1,0,0,256,,34,,3,0,,0,3.217,5718322,35,0,0,1,0,1710381657588,20000,,12337,3.219,0,0,0,0,4,0,12854,1489.045,0,3.204,3.214,3354936,54835,3.207,14,6,3.221,3.222,0,79,3.268,0,5233.08,20.723,37.2,,,0,36,0,99,34,3.222,0,,1,9,,12.169,0,48,48,0,,34,3.217,75000,,3.222,49,,0,3.218,4272433,0,22,1,0,3.213,,1,0,1,0,0,0.025,0,2,0,3.212,36,5.05,5.028,0,0,4469048,0,0
4,1710381652026,14/03/2024 07:30:52.026,66.6667,117,,,27,52,1,0,0,0,0,0,0,0,0,1,0,0,0,0,0,0,0,0,0,0,5.2,4.7,27.3,0.2,0,1450836,2,,51,0,0,36,35,0,0,,,,0,,18,0,0,,,0,,0,35,0,35,0,,53,0,0,1,0,0,256,,34,,3,0,,0,,5718322,35,0,0,1,0,1710381652026,20000,,12337,,0,0,0,0,1,0,12854,1489.045,0,,,3354936,52896,,0,6,,,0,79,3.298,0,5245.45,20.772,37.2,,,0,36,0,99,34,,0,,1,,,12.28,0,48,48,0,,34,,75000,,,49,,0,,4272433,0,16,1,0,,,1,0,1,0,0,0.006,0,2,0,,36,5.088,5.072,0,0,4469048,0,0
4,1710381646446,14/03/2024 07:30:46.446,95.8333,0,-0.378,52.568,0,52,1,0,0,0,0,0,0,0,0,1,0,0,0,0,0,0,0,0,0,0,5.2,0.0,0.0,0.1,0,1450834,2,3.286,50,0,0,36,35,0,0,3.285,16,1,0,20,23,0,0,3.282,3.284,0,3.284,0,35,0,35,0,3.286,53,0,0,1,0,0,256,,34,0,1,0,0,0,3.286,5718322,35,0,0,1,0,1710381646446,20000,,12337,3.286,0,0,0,0,1,0,12854,1489.045,0,3.282,3.284,3354936,50973,3.286,0,6,3.287,3.285,0,80,3.293,0,5245.96,20.774,37.2,,1,0,36,0,99,34,3.288,0,45,1,14,,12.178,0,48,48,0,0,34,3.287,75000,1800,3.288,50,1,0,3.287,4272433,0,23,1,0,3.285,0,1,0,1,0,0,0.006,0,2,0,3.285,36,5.063,5.065,0,0,4469048,0,0
4,1710381640706,14/03/2024 07:30:40.706,91.6667,0,-0.46,52.556,0,52,1,0,0,0,0,0,0,0,0,1,0,0,0,0,0,0,0,0,0,0,5.2,0.0,0.0,0.0,0,1450834,2,3.285,51,0,0,36,35,0,0,3.284,16,,0,,22,0,0,3.282,3.284,0,3.283,0,35,0,35,0,3.285,53,0,0,1,0,0,256,,34,,0,0,,0,3.285,5718322,35,0,0,1,0,1710381640706,20000,,12337,3.286,0,0,0,0,1,0,12854,1489.045,0,3.282,3.283,3354936,48971,3.285,0,6,3.286,3.284,0,80,3.293,0,5245.96,20.774,37.2,,,0,36,0,99,34,3.287,0,,0,14,,12.178,0,48,48,0,,34,3.286,75000,,3.287,50,,0,3.286,4272433,0,22,1,0,3.285,,1,0,1,0,0,0.005,0,2,0,3.284,36,5.063,5.065,0,0,4469048,0,0
4,1710381635066,14/03/2024 07:30:35.066,20.8333,0,,,0,,,,,,,,,,,,0,0,0,0,0,0,0,0,0,0,5.2,0.0,0.0,0.0,,,,,,0,,,,0,,,,,,,10,,,,,,,,,,,0,,,,,1,,,256,,,,0,0,,,,,,0,,,,1710381635066,,,,,,,,,,,,,0,,,,47000,,,,,,,80,,,,,,,,,,,,,,0,,0,,,,0,,48,,,,,,,,,,,,,,5,,0,,,,0,,,0,,,,,,,,,,0,,,
4,1710381629466,14/03/2024 07:30:29.466,91.6667,1,-0.225,52.524,0,52,1,0,0,0,0,0,0,0,0,1,0,0,0,0,0,0,0,0,0,0,5.2,0.0,0.0,0.0,0,1450834,2,3.283,51,0,0,36,35,0,0,3.282,16,,0,,22,0,0,3.28,3.281,0,3.281,0,35,0,35,0,3.283,53,0,0,1,0,0,256,,34,,0,0,,0,3.284,5718322,35,0,0,1,0,1710381629466,20000,,12337,3.284,0,0,0,0,1,0,12854,1489.045,0,3.28,3.281,3354936,45074,3.283,0,6,3.284,3.282,0,80,3.294,0,5245.96,20.774,37.2,,,0,36,0,99,34,3.285,0,,0,14,,12.182,0,48,48,0,,34,3.284,75000,,3.285,50,,0,3.284,4272433,0,22,1,0,3.282,,1,0,1,0,0,0.005,0,2,0,3.283,36,5.065,5.068,0,0,4469048,0,0
4,1710381623826,14/03/2024 07:30:23.826,20.8333,1,,,0,,,,,,,,,,,,0,0,0,0,0,0,0,0,0,0,5.2,0.0,0.0,0.0,,,,,,0,,,,0,,,,,,,10,,,,,,,,,,,0,,,,,1,,,256,,,,0,0,,,,,,0,,,,1710381623826,,,,,,,,,,,,,0,,,,43111,,,,,,,80,,,,,,,,,,,,,,0,,0,,,,0,,48,,,,,,,,,,,,,,5,,0,,,,0,,,0,,,,,,,,,,0,,,
4,1710381618106,14/03/2024 07:30:18.106,91.6667,0,-0.378,52.484,0,52,1,0,0,0,0,0,0,0,0,1,0,0,0,0,0,0,0,0,0,0,5.2,0.0,0.0,0.0,0,1450834,2,3.281,51,0,0,36,35,0,0,3.28,16,,0,,22,0,0,3.277,3.279,0,3.278,0,35,0,35,0,3.28,53,0,0,1,0,0,256,,34,,0,0,,0,3.281,5718322,35,0,0,1,0,1710381618106,20000,,12337,3.281,0,0,0,0,1,0,12854,1489.045,0,3.277,3.278,3354936,41130,3.281,0,6,3.282,3.28,0,80,3.294,0,5245.96,20.774,37.2,,,0,36,0,99,34,3.283,0,,0,14,,12.182,0,48,48,0,,34,3.281,75000,,3.283,50,,0,3.282,4272433,0,22,1,0,3.28,,1,0,1,0,0,0.006,0,2,0,3.28,36,5.075,5.068,0,0,4469048,0,0
4,1710381612486,14/03/2024 07:30:12.486,95.8333,0,-0.225,52.456,0,52,1,0,0,0,0,0,0,0,0,1,0,0,0,0,0,0,0,0,0,0,5.2,0.0,0.0,0.0,0,1450822,2,3.279,51,0,0,36,35,0,0,3.278,16,0,0,0,28,0,0,3.275,3.277,0,3.277,0,35,0,35,0,3.279,53,0,0,1,0,0,256,,34,0,0,0,0,0,3.279,5718322,35,0,0,1,0,1710381612486,20000,,12337,3.28,0,0,0,0,1,0,12854,1489.045,0,3.275,3.277,3354936,39186,3.279,0,6,3.28,3.278,0,80,3.293,0,5248.99,20.786,37.2,,0,0,36,0,99,34,3.281,0,20,0,14,,12.178,0,48,48,0,0,34,3.279,75000,0,3.281,51,1,0,3.28,4272433,0,23,1,0,3.278,0,1,0,1,0,0,0.006,0,2,0,3.278,36,5.07,5.065,0,0,4469048,0,0
4,1710381606886,14/03/2024 07:30:06.886,91.6667,0,-0.307,52.424,0,52,1,0,0,0,0,0,0,0,0,1,0,0,0,0,0,0,0,0,0,0,5.2,0.0,0.0,0.0,0,1450822,2,3.277,51,0,0,36,35,0,0,3.276,8,,0,,22,0,0,3.274,3.275,0,3.274,0,35,0,35,0,3.277,53,0,0,1,0,0,256,,34,,0,0,,0,3.277,5718322,35,0,0,1,0,1710381606886,20000,,12337,3.278,0,0,0,0,1,0,12854,1489.045,0,3.274,3.275,3354936,37241,3.277,14,6,3.278,3.276,0,80,3.293,0,5248.99,20.786,37.2,,,0,36,0,99,34,3.279,0,,0,14,,12.169,0,48,48,0,,34,3.277,75000,,3.279,51,,0,3.278,4272433,0,22,1,0,3.276,,1,0,1,0,0,0.005,0,2,0,3.276,36,5.07,5.065,0,0,4469048,0,0
4,1710381600886,14/03/2024 07:30:00.886,70.8333,,0.0,52.391,,52,0,0,0,0,0,0,0,1,0,1,,,,,,,,,,,,,,,0,1450822,2,3.275,51,,0,36,35,,0,3.274,7,,1,,17,0,0,3.272,3.273,0,3.272,0,35,0,35,,3.275,53,0,0,,0,0,,,34,,,,,0,3.276,5718322,35,,0,0,0,1710381600886,20000,,12337,3.276,0,0,0,0,33,0,12854,1489.045,,3.272,3.272,3354936,35349,3.275,0,6,3.276,3.273,1,,3.292,0,5248.99,20.786,37.2,,,0,36,0,99,34,3.277,,,,14,,12.182,,48,,0,,34,3.275,75000,,3.277,51,,0,3.276,4272433,0,17,1,,3.274,,1,,1,0,,0.005,0,2,0,3.274,36,5.058,5.072,0,,4469048,0,0
4,1710381600006,14/03/2024 07:30:00.006,70.8333,,0.0,52.386,,52,0,0,0,0,0,0,0,1,0,1,,,,,,,,,,,,,,,0,1450822,2,3.275,51,,0,36,35,,0,3.274,7,,1,,17,0,0,3.272,3.273,0,3.272,0,35,0,35,,3.274,53,0,0,,0,0,,,34,,,,,0,3.275,5718322,35,,0,0,0,1710381600006,20000,,12337,3.275,0,0,0,0,33,0,12854,1489.045,,3.272,3.272,3354936,35130,3.275,0,6,3.275,3.273,1,,3.294,0,5248.99,20.786,37.2,,,0,36,0,99,34,3.277,,,,14,,12.182,,48,,0,,34,3.275,75000,,3.277,51,,0,3.276,4272433,0,17,1,,3.274,,1,,1,0,,0.005,0,2,0,3.273,36,5.063,5.065,0,,4469048,0,0