File: Automationdashboard/log_modechange.csv
id,timestamp,localtime,percentage_of_can_ids,MotorSpeed_340920578,PackCurr_6,PackVol_6,Throttle_408094978,SOC_8,DchgFetStatus_9,DchgOverTempProt_9,DchgUnderTempProt_9,PackUnderVolProt_9,PackOverVolProt_9,DchgOverCurrProt_9,CellOverVolProt_9,ChgPeakProt_9,FetFailure_9,IgnitionStatus_12,Throttle_Error_408094978,DriveError_Motor_hall_408094978,Motor_Stalling_408094978,Motor_Phase_loss_408094978,Controller_Over_Temeprature_408094978,Motor_Over_Temeprature_408094978,Overcurrent_Fault_408094978,DriveError_Controller_OverVoltag_408094978,Controller_Undervoltage_408094978,MOSFET_Protection_408094978,BatteryVoltage_340920578,BatteryCurrent_340920578,AC_Current_340920579,AC_Voltage_340920580,CellUnderVolWarn_9,Dchg_Accumulative_Ah_14,ChargerType_12,CellVol02_1,PcbTemp_12,Reverse_Pulse_408094978,LatchProtection_12,Temp6_10,Temp3_10,ForwardParking_Mode_Ack_408094978,CellOverDevProt_9,AvgCellVol_5,MinVoltId_5,DriveStatus1_Ride_418513673,LoadDetection_12,Set_Regen_418513673,number_of_records,ChgOverCurrProt_9,BuzzerStatus_12,MinCellVol_5,CellVol04_1,CellOverVolWarn_9,CellVol08_2,CellBalFeatureStatus_12,Temp2_10,CellUnderVolProt_9,Temp8_10,Hill_hold_Ack_408094978,CellVol06_2,AfeTemp_12,LatchType_12,DI1_12,Wakeup_Ack_408094978,PreChgFetStatus_9,DchgOverTempWarn_9,MCU_ID_408094979,BMS_Serial_No_MUX_11,Temp1_10,DriveStatus2_Reverse_Request_418513673,Mode_Ack_408094978,ModeR_Pulse_408094978,VCU_ID_418513673,ResSocProt_9,CellVol12_3,HwVer_13,Temp4_10,Side_Stand_Ack_408094978,DchgUnderTempWarn_9,ChgFetStatus_9,ImmoChg_12,timestamp,ChargeSOP_16,BMS_Serial_No__1_7_11,FWSubVer_13,CellVol05_2,ShortCktProt_9,DO2_12,BattLowSocWarn_9,ChgUnderTempWarn_9,BmsStatus_8,ChgOverTempProt_9,InternalFWSubVer_21,Chg_Accumulative_Ah_14,Park_Pulse_408094978,CellVol16_4,CellVol07_2,InternalFWVer_21,sequence,CellVol01_1,LedStatus_9,MaxTempId_7,CellVol15_4,CellVol09_3,DschgPeakProt_9,Motor_Temperature_408094979,_3v3Vol_15,ChargerDetection_12,Actual_SoC_18,SOCAh_8,Usable_Capacity_Ah_18,BMS_Serial_No_Bytes_8_14_11,Mode_Request_418513673,PackOverVolWarn_9,Temp7_10,ChgOverTempWarn_9,SOH_8,Temp5_10,MaxCellVol_5,Direction_Ack_408094978,DC_Current_Limit_418513673,Ride_Ack_408094978,MaxVoltId_5,BMS_Serial_No__15_11,_12vVol_15,MCU_Fault_Code_408094979,CycleCount_7,MCU_Temperature_408094979,TempSenseFault_9,Hill_Hold_418513673,MinTemp_7,CellVol13_4,DchgSOP_16,Drive_418513673,CellVol14_4,FetTemp_8,WakeUp_Request_418513673,PackUnderVolWarn_9,CellVol10_3,ConfigVer_21,FetTempProt_9,number_of_can_ids,ChgAuth_9,Brake_Pulse_408094978,CellVol03_1,ForwardPark_Request_418513673,CanCommDetection_12,DriveStatus_Regenerative_Braking_408094978,MinTempId_7,ResStatus_9,ModeL_Pulse_408094978,CellVolMinMaxDev_7,ImmoDchg_12,CellChemType_12,ChgUnderTempProt_9,CellVol11_3,MaxTemp_7,RefVol_15,_5vVol_15,DO1_12,SideStand_Pulse_408094978,FwVer_13,DI2_12,ActiveCellBalStatus_9
4,1710382463678,14/03/2024 07:44:23.678,25.0,1008,,,96,,,,,,,,,,,,0,0,0,0,0,0,0,1,0,0,5.1,0.0,0.0,0.0,,,,3.248,,0,,,,0,,,,,,,6,,,,3.245,,,,,,,0,,,,,1,,,260,,,,1,0,,,,,,0,,,,1710382463678,,,,,,,,,,,,,0,,,,25209,3.248,,,,,,100,,,,,,,,,,,,,,0,,1,,,,0,,60,,,,,,,,,,,,,,6,,0,3.246,,,0,,,0,,,,,,,,,,0,,,
4,1710382463020,14/03/2024 07:44:23.020,91.6667,1029,-0.307,51.94,80,25,1,0,0,0,0,0,0,1,0,1,0,0,0,0,0,0,0,1,0,0,5.1,0.0,0.0,0.0,0,1461874,2,3.248,60,0,0,41,40,0,0,3.246,7,,0,,22,0,0,3.243,3.245,0,3.243,0,40,0,40,0,3.247,63,0,0,1,0,0,260,,38,,1,0,,0,3.247,5718322,40,0,0,0,0,1710382463020,20000,,12337,3.248,0,0,0,0,33,0,12854,1489.524,0,3.244,3.243,3354936,24997,3.247,0,6,3.248,3.244,0,100,3.294,0,2579.04,10.213,37.2,,,0,40,0,99,39,3.25,0,,1,14,,12.182,0,49,60,0,,38,3.246,68242,,3.25,62,,0,3.249,4272433,0,22,1,0,3.246,,1,0,1,0,0,0.007,0,2,0,3.245,41,5.065,5.068,0,0,4469048,0,0
4,1710382462386,14/03/2024 07:44:22.386,91.6667,1043,-0.307,51.932,18,25,1,0,0,0,0,0,0,1,0,1,0,0,0,0,0,0,0,1,0,0,5.1,0.0,0.0,0.0,0,1461874,2,3.247,61,0,0,41,40,0,0,3.245,7,,0,,22,0,0,3.242,3.244,0,3.243,0,40,0,40,0,3.246,63,0,0,1,0,0,260,,38,,1,0,,0,3.247,5718322,40,0,0,0,0,1710382462386,20000,,12337,3.248,0,0,0,0,33,0,12854,1489.524,0,3.244,3.242,3354936,24778,3.247,0,6,3.248,3.244,0,100,3.292,0,2579.04,10.213,37.2,,,0,40,0,99,39,3.249,0,,1,14,,12.169,0,49,60,0,,38,3.245,68242,,3.249,63,,0,3.248,4272433,0,22,1,0,3.246,,1,0,1,0,0,0.007,0,2,0,3.244,41,5.07,5.063,0,0,4469048,0,0
4,1710382461738,14/03/2024 07:44:21.738,91.6667,1034,-0.153,51.925,0,25,1,0,0,0,0,0,0,1,0,1,0,0,0,0,0,0,0,1,0,0,5.1,0.0,0.0,0.0,0,1461874,2,3.247,61,0,0,41,40,0,0,3.245,7,,0,,26,0,0,3.242,3.244,0,3.242,0,40,0,40,0,3.246,62,0,0,1,0,0,260,,38,,1,0,,0,3.246,5718322,40,0,0,0,0,1710382461738,20000,,12337,3.248,0,0,0,0,33,0,12854,1489.524,0,3.243,3.242,3354936,24552,3.246,0,6,3.247,3.243,0,100,3.293,0,2579.04,10.213,37.2,,,0,40,0,99,39,3.249,0,,1,14,,12.178,0,49,60,0,,38,3.245,68242,,3.249,62,,0,3.248,4272433,0,22,1,0,3.245,,1,0,1,0,0,0.007,0,2,0,3.244,41,5.058,5.028,0,0,4469048,0,0
4,1710382461098,14/03/2024 07:44:21.098,91.6667,1157,-0.46,51.917,0,25,1,0,0,0,0,0,0,1,0,1,0,0,0,0,0,0,0,1,0,0,5.1,0.0,0.0,0.0,0,1461874,2,3.246,61,0,0,41,40,0,0,3.244,7,,0,,27,0,0,3.241,3.243,0,3.242,0,40,0,40,0,3.245,63,0,0,1,0,0,260,,38,,1,0,,0,3.246,5718322,40,0,0,0,0,1710382461098,20000,,12337,3.247,0,0,0,0,33,0,12854,1489.524,0,3.243,3.241,3354936,24343,3.246,0,6,3.247,3.243,0,100,3.292,0,2579.04,10.213,37.2,,,0,40,0,99,39,3.248,0,,1,14,,12.173,0,49,60,0,,38,3.245,68242,,3.248,63,,0,3.247,4272433,0,22,1,0,3.245,,1,0,1,0,0,0.007,0,2,0,3.243,41,5.07,5.063,0,0,4469048,0,0
4,1710382460358,14/03/2024 07:44:20.358,20.8333,1458,,,0,,,,,,,,,,,,0,0,0,0,0,0,0,1,0,0,5.1,0.0,0.0,0.0,,,,,,0,,,,0,,,,,,,10,,,,,,,,,,,0,,,,,1,,,260,,,,1,0,,,,,,0,,,,1710382460358,,,,,,,,,,,,,0,,,,24073,,,,,,,100,,,,,,,,,,,,,,0,,1,,,,0,,60,,,,,,,,,,,,,,5,,0,,,,0,,,0,,,,,,,,,,0,,,
4,1710382459718,14/03/2024 07:44:19.718,91.6667,1695,-0.307,51.901,0,25,1,0,0,0,0,0,0,1,0,1,0,0,0,0,0,0,0,1,0,0,5.1,0.0,0.0,0.0,0,1461874,2,3.245,61,0,0,41,40,0,0,3.243,7,,0,,27,0,0,3.24,3.242,0,3.241,0,40,0,40,0,3.245,63,0,0,1,0,0,260,,38,,1,0,,0,3.245,5718322,40,0,0,0,0,1710382459718,20000,,12337,3.246,0,0,0,0,33,0,12854,1489.524,0,3.242,3.24,3354936,23860,3.245,0,6,3.246,3.242,0,100,3.292,0,2579.04,10.213,37.2,,,0,40,0,99,39,3.247,0,,1,14,,12.173,0,49,60,0,,38,3.244,68242,,3.247,63,,0,3.246,4272433,0,22,1,0,3.243,,1,0,1,0,0,0.007,0,2,0,3.242,41,5.068,5.065,0,0,4469048,0,0
4,1710382459058,14/03/2024 07:44:19.058,87.5,2024,-0.307,51.895,0,25,1,0,0,0,0,0,0,1,0,1,0,0,0,0,0,0,0,1,0,0,5.1,0.0,0.0,0.0,0,1461874,2,3.245,61,0,0,41,40,0,0,3.243,7,,0,,26,0,0,3.24,3.242,0,3.24,0,40,0,40,0,3.244,62,0,0,1,0,0,260,,38,,1,0,,0,3.244,5718322,40,0,0,0,0,1710382459058,20000,,12337,3.246,0,0,0,0,33,0,,1489.524,0,3.242,3.24,,23643,3.245,0,6,3.245,3.241,0,100,3.293,0,2579.04,10.213,37.2,,,0,40,0,99,39,3.247,0,,1,14,,12.178,0,49,60,0,,38,3.243,68242,,3.247,63,,0,3.246,,0,21,1,0,3.243,,1,0,1,0,0,0.007,0,2,0,3.242,41,5.073,5.065,0,0,4469048,0,0
4,1710382458418,14/03/2024 07:44:18.418,91.6667,2283,-0.378,51.884,0,25,1,0,0,0,0,0,0,1,0,1,0,0,0,0,0,0,0,1,0,0,5.1,0.0,0.0,0.0,0,1461874,2,3.244,61,0,0,41,40,0,0,3.242,7,,0,,22,0,0,3.239,3.241,0,3.239,0,40,0,40,0,3.243,63,0,0,1,0,0,260,,38,,1,0,,0,3.244,5718322,40,0,0,0,0,1710382458418,20000,,12337,3.245,0,0,0,0,33,0,12854,1489.524,0,3.241,3.239,3354936,23414,3.244,0,6,3.245,3.241,0,101,3.293,0,2579.04,10.213,37.2,,,0,40,0,99,39,3.246,0,,1,14,,12.182,0,49,60,0,,38,3.243,68242,,3.246,63,,0,3.245,4272433,0,22,1,0,3.243,,1,0,1,0,0,0.007,0,2,0,3.241,41,5.058,5.061,0,0,4469048,0,0
4,1710382457758,14/03/2024 07:44:17.758,20.8333,2432,,,0,,,,,,,,,,,,0,0,0,0,0,0,0,1,0,0,5.1,0.0,0.0,0.0,,,,,,0,,,,0,,,,,,,10,,,,,,,,,,,0,,,,,1,,,260,,,,1,0,,,,,,0,,,,1710382457758,,,,,,,,,,,,,0,,,,23177,,,,,,,101,,,,,,,,,,,,,,0,,1,,,,0,,60,,,,,,,,,,,,,,5,,0,,,,0,,,0,,,,,,,,,,0,,,
4,1710382457118,14/03/2024 07:44:17.118,91.6667,2462,-1.075,51.86,0,25,1,0,0,0,0,0,0,1,0,1,0,0,0,0,0,0,0,1,0,0,5.1,0.0,0.0,0.0,0,1461874,2,3.243,61,0,0,41,40,0,0,3.241,7,,0,,27,0,0,3.238,3.24,0,3.238,0,40,0,40,0,3.242,62,0,0,1,0,0,260,,38,,1,0,,0,3.242,5718322,40,0,0,1,0,1710382457118,20000,,12337,3.244,0,0,0,0,33,0,12854,1489.524,0,3.239,3.238,3354936,22968,3.243,0,6,3.243,3.239,0,101,3.27,0,2579.04,10.213,37.2,,,0,40,0,99,39,3.244,0,,1,5,,12.186,0,49,60,0,,38,3.241,68242,,3.244,63,,0,3.244,4272433,0,22,1,0,3.241,,1,0,1,0,0,0.006,0,2,0,3.239,41,5.055,5.03,0,0,4469048,0,0
4,1710382456478,14/03/2024 07:44:16.478,75.0,2492,-0.307,51.86,0,25,1,0,0,0,0,0,0,1,0,1,0,0,0,0,0,0,0,1,0,0,5.1,0.0,0.0,0.0,0,1461874,2,,61,0,0,41,40,0,0,3.241,7,,0,,23,0,0,3.238,,0,,0,40,0,40,0,,63,0,0,1,0,0,260,,38,,1,0,,0,,5718322,40,0,0,0,0,1710382456478,20000,,12337,,0,0,0,0,33,0,12854,1489.524,0,,,3354936,22731,,0,6,,,0,101,3.293,0,2579.04,10.213,37.2,,,0,40,0,99,39,3.245,0,,1,14,,12.178,0,49,60,0,,38,,68242,,,63,,0,,4272433,0,18,1,0,,,1,0,1,0,0,0.007,0,2,0,,41,5.07,5.065,0,0,4469048,0,0
4,1710382455818,14/03/2024 07:44:15.818,91.6667,2485,-0.378,51.853,0,25,1,0,0,0,0,0,0,1,0,1,0,0,0,0,0,0,0,1,0,0,5.1,0.0,0.0,0.0,0,1461874,2,3.242,61,0,0,41,40,0,0,3.24,7,,0,,27,0,0,3.237,3.239,0,3.238,0,40,0,40,0,3.241,62,0,0,1,0,0,260,,38,,1,0,,0,3.242,5718322,40,0,0,0,0,1710382455818,20000,,12337,3.243,0,0,0,0,33,0,12854,1489.524,0,3.239,3.237,3354936,22521,3.242,0,6,3.243,3.239,0,101,3.29,0,2579.04,10.213,37.2,,,0,40,0,99,39,3.244,0,,1,14,,12.182,0,49,60,0,,38,3.241,68242,,3.244,63,,0,3.243,4272433,0,22,1,0,3.241,,1,0,1,0,0,0.007,0,2,0,3.239,41,5.055,5.026,0,0,4469048,0,0
4,1710382455178,14/03/2024 07:44:15.178,25.0,2532,,,0,,,,,,,,,,,,0,0,0,0,0,0,0,1,0,0,5.1,0.0,0.0,0.0,,,,3.242,,0,,,,0,,,,,,,6,,,,3.239,,,,,,,0,,,,,1,,,260,,,,1,0,,,,,,0,,,,1710382455178,,,,,,,,,,,,,0,,,,22287,3.241,,,,,,101,,,,,,,,,,,,,,0,,1,,,,0,,60,,,,,,,,,,,,,,6,,0,3.24,,,0,,,0,,,,,,,,,,0,,,
4,1710382454538,14/03/2024 07:44:14.538,91.6667,2554,-0.307,51.833,0,25,1,0,0,0,0,0,0,1,0,1,0,0,0,0,0,0,0,1,0,0,5.1,0.0,0.0,0.0,0,1461874,2,3.241,60,0,0,41,40,0,0,3.239,7,,0,,22,0,0,3.236,3.238,0,3.236,0,40,0,40,0,3.24,63,0,0,1,0,0,260,,38,,1,0,,0,3.241,5718322,40,0,0,0,0,1710382454538,20000,,12337,3.242,0,0,0,0,33,0,12854,1489.524,0,3.238,3.236,3354936,22072,3.241,0,6,3.242,3.237,0,101,3.293,0,2579.04,10.213,37.2,,,0,40,0,99,39,3.243,0,,1,14,,12.178,0,49,60,0,,38,3.239,68242,,3.243,63,,0,3.242,4272433,0,22,1,0,3.239,,1,0,1,0,0,0.007,0,2,0,3.238,41,5.063,5.065,0,0,4469048,0,0
4,1710382453898,14/03/2024 07:44:13.898,91.6667,2582,-0.307,51.827,0,25,1,0,0,0,0,0,0,1,0,1,0,0,0,0,0,0,0,1,0,0,5.1,0.0,0.0,0.0,0,1461874,2,3.241,61,0,0,41,40,0,0,3.239,7,,0,,27,0,0,3.235,3.238,0,3.236,0,40,0,40,0,3.24,62,0,0,1,0,0,260,,38,,1,0,,0,3.24,5718322,40,0,0,0,0,1710382453898,20000,,12337,3.242,0,0,0,0,33,0,12854,1489.524,0,3.238,3.235,3354936,21868,3.24,0,6,3.241,3.237,0,101,3.271,0,2579.04,10.213,37.2,,,0,40,0,99,39,3.242,0,,1,5,,12.182,0,49,60,0,,38,3.239,68242,,3.242,63,,0,3.241,4272433,0,22,1,0,3.239,,1,0,1,0,0,0.007,0,2,0,3.238,41,5.053,5.028,0,0,4469048,0,0
4,1710382453258,14/03/2024 07:44:13.258,20.8333,2611,,,0,,,,,,,,,,,,0,0,0,0,0,0,0,1,0,0,5.1,0.0,0.0,0.0,,,,,,0,,,,0,,,,,,,10,,,,,,,,,,,0,,,,,1,,,260,,,,1,0,,,,,,0,,,,1710382453258,,,,,,,,,,,,,0,,,,21631,,,,,,,101,,,,,,,,,,,,,,0,,1,,,,0,,60,,,,,,,,,,,,,,5,,0,,,,0,,,0,,,,,,,,,,0,,,
4,1710382452578,14/03/2024 07:44:12.578,91.6667,2643,-0.225,51.797,0,25,1,0,0,0,0,0,0,1,0,1,0,0,0,0,0,0,0,1,0,0,5.1,0.0,0.0,0.0,0,1461874,2,3.24,61,0,0,41,40,0,0,3.237,7,,0,,24,0,0,3.233,3.236,0,3.233,0,40,0,40,0,3.238,63,0,0,1,0,0,260,,38,,1,0,,0,3.238,5718322,40,0,0,0,0,1710382452578,20000,,12337,3.24,0,0,0,0,33,0,12854,1489.524,0,3.235,3.233,3354936,21407,3.239,0,6,3.239,3.235,0,102,3.293,0,2579.04,10.213,37.2,,,0,40,0,99,39,3.241,0,,1,14,,12.165,0,49,60,0,,38,3.237,68242,,3.241,63,,0,3.24,4272433,0,22,1,0,3.238,,1,0,1,0,0,0.008,0,2,0,3.235,41,5.075,5.065,0,0,4469048,0,0
4,1710382451938,14/03/2024 07:44:11.938,91.6667,2673,-0.378,51.795,0,25,1,0,0,0,0,0,0,1,0,1,0,0,0,0,0,0,0,1,0,0,5.1,0.0,0.0,0.0,0,1461874,2,3.239,61,0,0,41,40,0,0,3.237,7,,0,,22,0,0,3.233,3.236,0,3.234,0,40,0,40,0,3.238,63,0,0,1,0,0,260,,38,,1,0,,0,3.238,5718322,40,0,0,0,0,1710382451938,20000,,12337,3.24,0,0,0,0,33,0,12854,1489.518,0,3.236,3.233,3354936,21180,3.238,0,6,3.239,3.235,0,102,3.285,0,2577.52,10.207,37.2,,,0,40,0,99,39,3.241,0,,1,14,,12.182,0,49,60,0,,38,3.237,68223,,3.241,63,,0,3.239,4272433,0,22,1,0,3.237,,1,0,1,0,0,0.008,0,2,0,3.235,41,5.053,5.028,0,0,4469048,0,0
4,1710382451298,14/03/2024 07:44:11.298,91.6667,2712,-0.378,51.785,0,25,1,0,0,0,0,0,0,1,0,1,0,0,0,0,0,0,0,1,0,0,5.1,0.0,0.0,0.0,0,1461874,2,3.238,61,0,0,41,40,0,0,3.236,7,,0,,25,0,0,3.232,3.235,0,3.233,0,40,0,40,0,3.237,63,0,0,1,0,0,260,,38,,1,0,,0,3.238,5718322,40,0,0,0,0,1710382451298,20000,,12337,3.239,0,0,0,0,33,0,12854,1489.518,0,3.235,3.232,3354936,20970,3.238,0,6,3.239,3.235,0,102,3.293,0,2577.52,10.207,37.2,,,0,40,0,99,39,3.24,0,,1,14,,12.178,0,49,60,0,,38,3.236,68223,,3.24,63,,0,3.239,4272433,0,22,1,0,3.236,,1,0,1,0,0,0.008,0,2,0,3.235,41,5.06,5.065,0,0,4469048,0,0
4,1710382450668,14/03/2024 07:44:10.668,20.8333,2750,,,0,,,,,,,,,,,,0,0,0,0,0,0,0,1,0,0,5.1,0.0,0.0,0.0,,,,,,0,,,,0,,,,,,,10,,,,,,,,,,,0,,,,,1,,,260,,,,1,0,,,,,,0,,,,1710382450668,,,,,,,,,,,,,0,,,,20736,,,,,,,102,,,,,,,,,,,,,,0,,1,,,,0,,60,,,,,,,,,,,,,,5,,0,,,,0,,,0,,,,,,,,,,0,,,
4,1710382450018,14/03/2024 07:44:10.018,91.6667,2804,-0.378,51.763,0,25,1,0,0,0,0,0,0,1,0,1,0,0,0,0,0,0,0,1,0,0,5.1,0.0,0.0,0.0,0,1461874,2,3.237,61,0,0,41,40,0,0,3.235,7,,0,,27,0,0,3.231,3.234,0,3.232,0,40,0,40,0,3.236,62,0,0,1,0,0,260,,38,,1,0,,0,3.236,5718322,40,0,0,0,0,1710382450018,20000,,12337,3.238,0,0,0,0,33,0,12854,1489.518,0,3.233,3.231,3354936,20526,3.236,0,6,3.237,3.233,0,102,3.27,0,2577.52,10.207,37.2,,,0,40,0,99,39,3.239,0,,1,14,,12.182,0,49,60,0,,38,3.235,68223,,3.239,63,,0,3.238,4272433,0,22,1,0,3.235,,1,0,1,0,0,0.008,0,2,0,3.233,41,5.05,5.033,0,0,4469048,0,0
4,1710382449378,14/03/2024 07:44:09.378,95.8333,2857,-0.307,51.75,0,25,1,0,0,0,0,0,0,1,0,1,0,0,0,0,0,0,0,1,0,0,5.1,0.0,0.0,0.0,0,1461874,2,3.236,61,0,0,41,40,0,0,3.234,7,1,0,20,23,0,0,3.23,3.233,0,3.231,0,40,0,40,0,3.235,63,0,0,1,0,0,260,,38,0,1,0,0,0,3.236,5718322,40,0,0,0,0,1710382449378,20000,,12337,3.237,0,0,0,0,33,0,12854,1489.518,0,3.233,3.23,3354936,20308,3.236,0,6,3.236,3.232,0,102,3.279,0,2577.52,10.207,37.2,,1,0,40,0,99,39,3.238,0,98,1,14,,12.216,0,49,60,0,0,38,3.234,68223,1800,3.238,63,1,0,3.237,4272433,0,23,1,0,3.234,0,1,0,1,0,0,0.008,0,2,0,3.232,41,5.065,5.044,0,0,4469048,0,0
4,1710382448701,14/03/2024 07:44:08.701,91.6667,2903,-0.378,51.738,0,25,1,0,0,0,0,0,0,1,0,1,0,0,0,0,0,0,0,1,0,0,5.1,0.0,0.0,0.0,0,1461874,2,3.236,61,0,0,41,40,0,0,3.233,7,,0,,27,0,0,3.229,3.232,0,3.23,0,40,0,40,0,3.234,63,0,0,1,0,0,260,,38,,1,0,,0,3.235,5718322,40,0,0,0,0,1710382448701,20000,,12337,3.236,0,0,0,0,33,0,12854,1489.518,0,3.232,3.229,3354936,20077,3.236,0,6,3.236,3.231,0,102,3.294,0,2577.52,10.207,37.2,,,0,40,0,99,39,3.237,0,,1,14,,12.169,0,49,60,0,,38,3.233,68223,,3.237,63,,0,3.236,4272433,0,22,1,0,3.233,,1,0,1,0,0,0.008,0,2,0,3.232,41,5.075,5.065,0,0,4469048,0,0
4,1710382448058,14/03/2024 07:44:08.058,20.8333,2960,,,0,,,,,,,,,,,,0,0,0,0,0,0,0,1,0,0,5.1,0.0,0.0,0.0,,,,,,0,,,,0,,,,,,,10,,,,,,,,,,,0,,,,,1,,,260,,,,1,0,,,,,,0,,,,1710382448058,,,,,,,,,,,,,0,,,,19843,,,,,,,103,,,,,,,,,,,,,,0,,1,,,,0,,60,,,,,,,,,,,,,,5,,0,,,,0,,,0,,,,,,,,,,0,,,
4,1710382447400,14/03/2024 07:44:07.400,91.6667,2993,-0.378,51.714,0,25,1,0,0,0,0,0,0,1,0,1,0,0,0,0,0,0,0,1,0,0,5.1,0.0,0.0,0.0,0,1461874,2,3.234,61,0,0,41,40,0,0,3.232,7,,0,,22,0,0,3.228,3.231,0,3.228,0,40,0,40,0,3.233,63,0,0,1,0,0,260,,38,,1,0,,0,3.233,5718322,40,0,0,0,0,1710382447400,20000,,12337,3.235,0,0,0,0,33,0,12854,1489.518,0,3.231,3.228,3354936,19620,3.233,0,6,3.234,3.23,0,103,3.27,0,2577.52,10.207,37.2,,,0,40,0,99,39,3.236,0,,1,14,,12.182,0,49,60,0,,38,3.232,68223,,3.236,64,,0,3.234,4272433,0,22,1,0,3.232,,1,0,1,0,0,0.008,0,2,0,3.23,41,5.053,5.028,0,0,4469048,0,0
4,1710382446758,14/03/2024 07:44:06.758,45.8333,3034,,,0,,,,,,,,,,,,0,0,0,0,0,0,0,1,0,0,5.1,0.0,0.0,0.0,,1461874,,,,0,,,,0,,,,,,,16,,,,,,,,,,,0,,,,,1,,,260,,,,1,0,,,,5718322,,0,,,,1710382446758,20000,,12337,,,,,,,,12854,1489.518,0,,,3354936,19394,,,,,,,103,3.29,,2577.52,,37.2,,,,,,,,,0,,1,,,12.25,0,,60,,,,,68223,,,,,,,4272433,,11,,0,,,,0,,,0,,,,,,,5.078,5.061,,0,4469048,,
4,1710382446118,14/03/2024 07:44:06.118,95.8333,3103,-0.225,51.684,0,25,1,0,0,0,0,0,0,1,0,1,0,0,0,0,0,0,0,1,0,0,5.1,0.0,0.0,0.0,0,1461874,2,3.232,61,0,0,41,40,0,0,3.23,7,1,0,20,28,0,0,3.226,3.229,0,3.226,0,40,0,40,0,3.231,63,0,0,1,0,0,260,,38,0,1,0,0,0,3.231,5718322,40,0,0,0,0,1710382446118,20000,,12337,3.233,0,0,0,0,33,0,12854,1489.518,0,3.229,3.226,3354936,19185,3.232,0,6,3.232,3.228,0,103,3.293,0,2577.52,10.207,37.2,,1,0,40,0,99,39,3.234,0,101,1,14,,12.207,0,49,60,0,0,38,3.23,68223,1800,3.234,64,1,1,3.233,4272433,0,23,1,0,3.23,0,1,0,1,0,0,0.008,0,2,0,3.228,41,5.08,5.068,0,0,4469048,0,0
4,1710382445478,14/03/2024 07:44:05.478,54.1667,3139,-0.46,51.672,0,25,,,,,,,,,,,0,0,0,0,0,0,0,1,0,0,5.1,0.0,0.0,0.0,,,,3.231,,0,,,,0,,3.229,7,,,,18,,,3.226,3.228,,3.226,,,,,0,3.23,,,,1,,,260,,,,1,0,,,3.231,,,0,,,,1710382445478,,,,3.232,,,,,33,,,,0,3.228,3.226,,18957,3.231,,6,3.232,3.227,,103,,,,10.207,,,,,,,99,,3.233,0,,1,14,,,0,49,60,,,38,3.229,,,3.233,64,,,3.232,,,13,,0,3.229,,,0,1,,0,0.007,,,,3.227,41,,,,0,,,
4,1710382444818,14/03/2024 07:44:04.818,91.6667,3196,-0.307,51.657,0,25,1,0,0,0,0,0,0,1,0,1,0,0,0,0,0,0,0,1,0,0,5.1,0.0,0.0,0.0,0,1461874,2,3.231,61,0,0,41,40,0,0,3.228,7,,0,,22,0,0,3.224,3.227,0,3.225,0,40,0,40,0,3.229,63,0,0,1,0,0,260,,38,,1,0,,0,3.229,5718322,40,0,0,0,0,1710382444818,20000,,12337,3.232,0,0,0,0,33,0,12854,1489.518,0,3.227,3.224,3354936,18738,3.23,0,6,3.231,3.226,0,103,3.295,0,2577.52,10.207,37.2,,,0,40,0,99,39,3.233,0,,1,14,,12.263,0,49,60,0,,38,3.228,68223,,3.233,64,,1,3.231,4272433,0,22,1,0,3.228,,1,0,1,0,0,0.009,0,2,0,3.226,41,5.083,5.07,0,0,4469048,0,0
4,1710382444158,14/03/2024 07:44:04.158,20.8333,3251,,,0,,,,,,,,,,,,0,0,0,0,0,0,0,1,0,0,5.1,0.0,0.0,0.0,,,,,,0,,,,0,,,,,,,10,,,,,,,,,,,0,,,,,1,,,260,,,,1,0,,,,,,0,,,,1710382444158,,,,,,,,,,,,,0,,,,18502,,,,,,,103,,,,,,,,,,,,,,0,,1,,,,0,,60,,,,,,,,,,,,,,5,,0,,,,0,,,0,,,,,,,,,,0,,,
4,1710382443511,14/03/2024 07:44:03.511,91.6667,3295,-0.307,51.628,0,25,1,0,0,0,0,0,0,1,0,1,0,0,0,0,0,0,0,1,0,0,5.1,0.0,0.0,0.0,1,1461874,2,3.229,61,0,0,41,40,0,0,3.226,7,,0,,27,0,0,3.222,3.225,0,3.223,0,40,0,40,0,3.228,63,0,0,1,0,0,260,,38,,1,0,,0,3.228,5718322,40,0,0,0,0,1710382443511,20000,,12337,3.23,0,0,0,0,33,0,12854,1489.518,0,3.225,3.222,3354936,18289,3.228,0,6,3.229,3.224,0,104,3.293,0,2577.52,10.207,37.2,,,0,40,0,99,39,3.231,0,,1,14,,12.173,0,49,60,0,,38,3.226,68223,,3.231,65,,1,3.229,4272433,0,22,1,0,3.227,,1,0,1,0,0,0.009,0,2,0,3.224,41,5.07,5.063,0,0,4469048,0,0
4,1710382442845,14/03/2024 07:44:02.845,83.3333,3368,-0.225,51.611,0,25,1,0,0,0,0,0,0,1,0,1,0,0,0,0,0,0,0,1,0,0,5.1,0.0,0.0,0.0,1,1461874,2,,61,0,0,41,40,0,0,3.225,7,,0,,20,0,0,3.221,,0,,0,40,0,40,0,,63,0,0,1,0,0,260,,38,,1,0,,0,3.227,5718322,40,0,0,0,0,1710382442845,20000,,12337,,0,0,0,0,33,0,12854,1489.518,0,3.224,,3354936,18050,,0,6,3.228,3.223,0,104,3.268,0,2577.52,10.207,37.2,,,0,40,0,99,39,3.23,0,,1,14,,12.173,0,49,60,0,,38,3.225,68223,,3.23,64,,1,3.228,4272433,0,20,1,0,,,1,0,1,0,0,0.009,0,2,0,3.223,41,5.05,5.028,0,0,4469048,0,0
4,1710382442198,14/03/2024 07:44:02.198,91.6667,3415,-0.307,51.595,0,25,1,0,0,0,0,0,0,1,0,1,0,0,0,0,0,0,0,1,0,0,5.1,0.0,0.0,0.0,1,1461874,2,3.226,61,0,0,41,40,0,0,3.224,7,,0,,27,0,0,3.22,3.223,0,3.221,0,40,0,40,0,3.226,63,0,0,1,0,0,260,,38,,1,0,,0,3.226,5718322,40,0,0,0,0,1710382442198,20000,,12337,3.228,0,0,0,0,33,0,12854,1489.518,0,3.224,3.22,3354936,17843,3.226,0,6,3.227,3.222,0,104,3.293,0,2577.52,10.207,37.2,,,0,40,0,99,39,3.229,0,,1,14,,12.169,0,49,60,0,,38,3.224,68223,,3.229,64,,1,3.227,4272433,0,22,1,0,3.224,,1,0,1,0,0,0.009,0,2,0,3.222,41,5.075,5.065,0,0,4469048,0,0
4,1710382441538,14/03/2024 07:44:01.538,91.6667,3481,-0.307,51.575,0,25,1,0,0,0,0,0,0,1,0,1,0,0,0,0,0,0,0,1,0,0,5.1,0.0,0.0,0.0,1,1461874,2,3.226,61,0,0,41,40,0,0,3.223,7,,0,,22,0,0,3.218,3.222,0,3.219,0,40,0,40,0,3.224,63,0,0,1,0,0,260,,38,,1,0,,0,3.224,5718322,40,0,0,0,0,1710382441538,20000,,12337,3.227,0,0,0,0,33,0,12854,1489.518,0,3.222,3.218,3354936,17601,3.225,0,6,3.226,3.221,0,104,3.295,0,2577.52,10.207,37.2,,,0,40,0,99,39,3.228,0,,1,14,,12.207,0,49,60,0,,38,3.223,68223,,3.228,64,,1,3.226,4272433,0,22,1,0,3.223,,1,0,1,0,0,0.01,0,2,0,3.221,41,5.08,5.068,0,0,4469048,0,0
4,1710382440898,14/03/2024 07:44:00.898,91.6667,3529,-0.46,51.557,0,25,1,0,0,0,0,0,0,1,0,1,0,0,0,0,0,0,0,1,0,0,5.1,0.0,0.0,0.0,1,1461874,2,3.224,61,0,0,41,40,0,0,3.222,7,,0,,27,0,0,3.218,3.221,0,3.218,0,40,0,40,0,3.223,62,0,0,1,0,0,260,,38,,1,0,,0,3.223,5718322,40,0,0,0,0,1710382440898,20000,,12337,3.225,0,0,0,0,33,0,12854,1489.518,0,3.221,3.218,3354936,17397,3.224,0,6,3.225,3.22,0,104,3.271,0,2577.52,10.207,37.2,,,0,40,0,99,39,3.226,0,,1,14,,12.182,0,49,60,0,,38,3.222,68223,,3.226,65,,1,3.225,4272433,0,22,1,0,3.222,,1,0,1,0,0,0.008,0,2,0,3.22,41,5.053,5.028,0,0,4469048,0,0
4,1710382440218,14/03/2024 07:44:00.218,91.6667,3589,-0.378,51.538,0,25,1,0,0,0,0,0,0,1,0,1,0,0,0,0,0,0,0,1,0,0,5.1,0.0,0.0,0.0,1,1461874,2,3.223,61,0,0,41,40,0,0,3.221,7,,0,,27,0,0,3.216,3.22,0,3.217,0,40,0,40,0,3.222,63,0,0,1,0,0,260,,38,,1,0,,0,3.222,5718322,40,0,0,0,0,1710382440218,20000,,12337,3.224,0,0,0,0,33,0,12854,1489.518,0,3.22,3.216,3354936,17155,3.223,0,6,3.223,3.219,0,104,3.294,0,2577.52,10.207,37.2,,,0,40,0,99,39,3.225,0,,1,14,,12.224,0,49,60,0,,38,3.221,68223,,3.225,65,,1,3.223,4272433,0,22,1,0,3.221,,1,0,1,0,0,0.009,0,2,0,3.219,41,5.083,5.068,0,0,4469048,0,0
4,1710382439578,14/03/2024 07:43:59.578,91.6667,3649,-0.378,51.519,0,25,1,0,0,0,0,0,0,1,0,1,0,0,0,0,0,0,0,1,0,0,5.1,0.0,0.0,0.0,1,1461874,2,3.222,61,0,0,41,40,0,0,3.219,7,,0,,24,0,0,3.215,3.219,0,3.216,0,40,0,40,0,3.221,63,0,0,1,0,0,260,,38,,1,0,,0,3.221,5718322,40,0,0,0,0,1710382439578,20000,,12337,3.223,0,0,0,0,36,0,12854,1489.518,0,3.219,3.215,3354936,16936,3.221,0,6,3.222,3.217,0,104,3.295,0,2577.52,10.207,37.2,,,0,40,0,99,39,3.224,0,,1,14,,12.275,0,49,60,0,,38,3.219,68223,,3.224,65,,1,3.223,4272433,0,22,1,0,3.22,,1,0,1,0,0,0.009,0,2,0,3.217,41,5.085,5.07,0,0,4469048,0,0
4,1710382438938,14/03/2024 07:43:58.938,91.6667,3711,-0.307,51.498,0,25,1,0,0,0,0,0,0,1,0,1,0,0,0,0,0,0,0,1,0,0,5.1,0.0,0.0,0.0,1,1461874,2,3.221,61,0,0,41,40,0,0,3.218,7,,0,,22,0,0,3.214,3.217,0,3.214,0,40,0,40,0,3.219,62,0,0,1,0,0,260,,38,,1,0,,0,3.22,5718322,40,0,0,0,0,1710382438938,20000,,12337,3.222,0,0,0,0,36,0,12854,1489.518,0,3.218,3.214,3354936,16709,3.22,0,6,3.221,3.216,0,104,3.293,0,2577.52,10.207,37.2,,,0,40,0,99,39,3.223,0,,1,14,,12.182,0,49,60,0,,38,3.218,68223,,3.223,65,,1,3.221,4272433,0,22,1,0,3.218,,1,0,1,0,0,0.009,0,2,0,3.216,41,5.068,5.068,0,0,4469048,0,0
4,1710382438278,14/03/2024 07:43:58.278,91.6667,3764,-0.225,51.472,0,25,1,0,0,0,0,0,0,1,0,1,0,0,0,0,0,0,0,1,0,0,5.1,0.0,0.0,0.0,1,1461874,2,3.219,61,0,0,41,40,0,0,3.217,7,,0,,22,0,0,3.212,3.216,0,3.213,0,40,0,40,0,3.218,62,0,0,1,0,0,260,,38,,1,0,,0,3.218,5718322,40,0,0,0,0,1710382438278,20000,,12337,3.22,0,0,0,0,36,0,12854,1489.518,0,3.216,3.212,3354936,16490,3.219,5,6,3.219,3.214,0,104,3.293,0,2577.52,10.207,37.2,,,0,40,0,99,39,3.221,0,,1,14,,12.178,0,49,60,0,,38,3.216,68223,,3.221,65,,1,3.22,4272433,0,22,1,0,3.217,,1,0,1,0,0,0.009,0,2,0,3.214,41,5.058,5.035,0,0,4469048,0,0
4,1710382437617,14/03/2024 07:43:57.617,91.6667,3830,-0.46,51.447,0,25,1,0,0,0,0,0,0,1,0,1,0,0,0,0,0,0,0,1,0,0,5.1,0.0,0.0,0.0,1,1461874,2,3.218,61,0,0,41,40,0,0,3.215,7,,0,,27,0,0,3.21,3.214,0,3.211,0,40,0,40,0,3.216,63,0,0,1,0,0,260,,38,,1,0,,0,3.216,5718322,40,0,0,0,0,1710382437617,20000,,12337,3.219,0,0,0,0,36,0,12854,1489.518,0,3.214,3.21,3354936,16260,3.217,5,6,3.218,3.213,0,104,3.295,0,2577.52,10.207,37.2,,,0,40,0,99,39,3.22,0,,1,14,,12.173,0,49,60,0,,38,3.215,68223,,3.22,65,,1,3.218,4272433,0,22,1,0,3.215,,1,0,1,0,0,0.01,0,2,0,3.213,41,5.078,5.068,0,0,4469048,0,0
4,1710382436958,14/03/2024 07:43:56.958,91.6667,3882,-0.225,51.422,0,25,1,0,0,0,0,0,0,1,0,1,0,0,0,0,0,0,0,1,0,0,5.0,0.0,0.0,0.0,1,1461874,2,3.216,61,0,0,41,40,0,0,3.213,7,,0,,27,0,0,3.209,3.212,0,3.209,0,40,0,40,0,3.215,62,0,0,1,0,0,260,,38,,1,0,,0,3.215,5718322,40,0,0,0,0,1710382436958,20000,,12337,3.217,0,0,0,0,36,0,12854,1489.518,0,3.213,3.209,3354936,16044,3.216,5,6,3.216,3.211,0,104,3.293,0,2577.52,10.207,37.2,,,0,40,0,99,39,3.218,0,,1,14,,12.161,0,49,60,0,,38,3.213,68223,,3.218,65,,1,3.217,4272433,0,22,1,0,3.214,,1,0,1,0,0,0.009,0,2,0,3.211,41,5.078,5.065,0,0,4469048,0,0
4,1710382436319,14/03/2024 07:43:56.319,91.6667,3966,-0.225,51.396,0,25,1,0,0,0,0,0,0,1,0,1,0,0,0,0,0,0,0,1,0,0,5.0,0.0,0.0,0.0,1,1461874,2,3.215,60,0,0,41,40,0,0,3.212,7,,0,,22,0,0,3.207,3.211,0,3.208,0,40,0,40,0,3.213,62,0,0,1,0,0,260,,38,,1,0,,0,3.213,5718322,40,0,0,0,0,1710382436319,20000,,12337,3.216,0,0,0,0,36,0,12854,1489.518,0,3.211,3.207,3354936,15813,3.214,5,6,3.215,3.209,0,104,3.293,0,2577.52,10.207,37.2,,,0,40,0,99,39,3.217,0,,1,14,,12.178,0,49,60,0,,38,3.211,68223,,3.217,66,,1,3.215,4272433,0,22,1,0,3.212,,1,0,1,0,0,0.01,0,2,0,3.209,41,5.063,5.065,0,0,4469048,0,0
4,1710382435658,14/03/2024 07:43:55.658,20.8333,3999,,,0,,,,,,,,,,,,0,0,0,0,0,0,0,1,0,0,5.0,0.0,0.0,0.0,,,,,,0,,,,0,,,,,,,10,,,,,,,,,,,0,,,,,1,,,260,,,,1,0,,,,,,0,,,,1710382435658,,,,,,,,,,,,,0,,,,15577,,,,,,,104,,,,,,,,,,,,,,0,,1,,,,0,,60,,,,,,,,,,,,,,5,,0,,,,0,,,0,,,,,,,,,,0,,,
4,1710382434998,14/03/2024 07:43:54.998,91.6667,4041,0.071,51.387,0,25,1,0,0,0,0,0,0,1,0,1,0,0,0,0,0,0,0,1,0,0,7.3,0.0,0.0,0.0,1,1461874,2,3.214,61,0,0,41,40,0,0,3.211,7,,0,,22,0,0,3.207,3.21,0,3.207,0,40,0,40,0,3.212,62,0,0,1,0,0,260,,38,,1,0,,0,3.212,5718322,40,0,0,0,0,1710382434998,20000,,12337,3.215,0,0,0,0,36,0,12854,1489.518,0,3.211,3.207,3354936,15376,3.213,5,6,3.215,3.209,0,104,3.293,1,2577.52,10.207,37.2,,,0,40,0,99,39,3.216,0,,1,14,,12.186,0,49,60,0,,38,3.211,68223,,3.216,66,,1,3.214,4272433,0,22,1,0,3.212,,1,0,1,0,0,0.009,0,2,0,3.209,41,5.08,5.068,0,0,4469048,0,0
4,1710382434358,14/03/2024 07:43:54.358,20.8333,4155,,,0,,,,,,,,,,,,0,0,0,0,0,0,0,0,0,0,5.1,6531.7,31.6,3.1,,,,,,0,,,,0,,,,,,,5,,,,,,,,,,,0,,,,,1,,,256,,,,1,0,,,,,,0,,,,1710382434358,,,,,,,,,,,,,0,,,,15146,,,,,,,104,,,,,,,,,,,,,,0,,1,,,,0,,60,,,,,,,,,,,,,,5,,0,,,,0,,,0,,,,,,,,,,0,,,
4,1710382433718,14/03/2024 07:43:53.718,91.6667,4266,-27.873,50.571,17,25,1,0,0,0,0,0,0,0,0,1,0,0,0,0,0,0,0,0,0,0,4.9,17.7,37.6,3.3,1,1461870,2,3.163,61,0,0,41,40,0,0,3.16,8,,0,,27,0,0,3.145,3.158,0,3.145,0,39,0,40,0,3.163,62,0,0,1,0,0,256,,38,,1,0,,0,3.165,5718322,40,0,0,1,0,1710382433718,20000,,12337,3.166,0,0,0,0,4,0,12854,1489.518,0,3.158,3.155,3354936,14938,3.152,0,6,3.169,3.162,0,104,3.289,0,2578.53,10.211,37.2,,,0,40,0,99,39,3.171,0,,1,14,,12.173,0,49,60,0,,38,3.166,68236,,3.171,66,,1,3.164,4272433,0,22,1,0,3.155,,1,0,1,0,0,0.026,0,2,0,3.159,41,5.053,5.026,0,0,4469048,0,0
4,1710382433058,14/03/2024 07:43:53.058,66.6667,4293,-39.659,50.323,11,25,1,0,0,0,0,0,0,0,0,1,0,0,0,0,0,0,0,0,0,0,4.9,39.8,39.1,3.3,1,,2,3.152,61,0,0,41,40,0,0,3.145,8,,0,,19,0,0,3.123,3.145,0,3.123,0,39,0,40,0,3.15,62,0,0,1,0,0,256,,38,,3,0,,0,3.148,,40,0,0,1,0,1710382433058,,,,3.152,0,0,0,0,4,0,,,0,3.138,3.141,,14713,3.139,0,6,3.151,3.151,0,104,,0,,10.211,,,,0,40,0,99,39,3.153,0,,1,14,,,0,49,60,0,,38,3.145,,,3.153,66,,1,3.149,,0,16,1,0,3.144,,1,0,1,0,0,0.03,0,2,0,3.142,41,,,0,0,,0,0
4,1710382432398,14/03/2024 07:43:52.398,91.6667,4293,-39.884,50.348,11,25,1,0,0,0,0,0,0,0,0,1,0,0,0,0,0,0,0,0,0,0,4.9,40.4,36.4,3.4,1,1461858,2,3.154,61,0,0,41,40,0,0,3.146,8,,0,,22,0,0,3.126,3.148,0,3.126,0,39,0,40,0,3.152,62,0,0,1,0,0,256,,38,,3,0,,0,3.149,5718322,40,0,0,1,0,1710382432398,20000,,12337,3.153,0,0,0,0,4,0,12854,1489.518,0,3.139,3.14,3354936,14487,3.144,0,6,3.152,3.151,0,104,3.291,0,2581.56,10.223,37.2,,,0,40,0,99,39,3.157,0,,1,14,,12.173,0,49,60,0,,38,3.146,68275,,3.157,66,,1,3.15,4272433,0,22,1,0,3.146,,1,0,1,0,0,0.031,0,2,0,3.141,41,5.055,5.061,0,0,4469048,0,0
4,1710382431738,14/03/2024 07:43:51.738,95.8333,4280,16.537,51.424,3,25,1,0,0,0,0,0,0,0,0,1,0,0,0,0,0,0,0,0,0,0,5.0,6.1,43.7,3.1,1,1461857,2,3.216,60,0,0,41,40,0,0,3.214,7,1,0,20,28,0,0,3.206,3.212,0,3.215,0,39,0,40,0,3.214,62,0,0,1,0,0,256,,38,0,3,0,0,0,3.215,5718322,40,0,0,1,0,1710382431738,20000,,12337,3.217,0,0,0,0,4,0,12854,1489.518,0,3.216,3.206,3354936,14250,3.219,0,6,3.217,3.207,0,104,3.293,0,2581.81,10.224,37.2,,3,0,40,0,99,39,3.219,0,115,1,1,,12.165,0,49,60,0,0,38,3.213,68279,4500,3.218,66,1,1,3.216,4272433,0,23,1,0,3.213,0,1,0,1,0,0,0.013,0,2,0,3.21,41,5.078,5.065,0,0,4469048,0,0
4,1710382431087,14/03/2024 07:43:51.087,91.6667,4399,-5.662,50.837,0,25,1,0,0,0,0,0,0,0,0,1,0,0,0,0,0,0,0,0,0,0,4.9,4.4,55.9,3.0,1,1461857,2,3.181,61,0,0,41,40,0,0,3.177,7,,0,,27,0,0,3.169,3.177,0,3.169,0,39,0,40,0,3.18,62,0,0,1,0,0,256,,38,,3,0,,0,3.181,5718322,40,0,0,1,0,1710382431087,20000,,12337,3.182,0,0,0,0,4,0,12854,1489.518,0,3.174,3.169,3354936,14031,3.179,0,6,3.177,3.175,0,104,3.279,0,2581.81,10.224,37.2,,,0,40,0,99,39,3.186,0,,1,14,,12.212,0,49,60,0,,38,3.179,68279,,3.186,66,,1,3.181,4272433,0,22,1,0,3.176,,1,0,1,0,0,0.017,0,2,0,3.171,41,5.063,5.044,0,0,4469048,0,0
4,1710382430358,14/03/2024 07:43:50.358,20.8333,4429,,,19,,,,,,,,,,,,0,0,0,0,0,0,0,0,0,0,4.8,58.8,59.9,3.3,,,,,,0,,,,0,,,,,,,8,,,,,,,,,,,0,,,,,1,,,256,,,,3,0,,,,,,0,,,,1710382430358,,,,,,,,,,,,,0,,,,13768,,,,,,,104,,,,,,,,,,,,,,0,,1,,,,0,,60,,,,,,,,,,,,,,5,,0,,,,0,,,0,,,,,,,,,,0,,,
4,1710382429720,14/03/2024 07:43:49.720,91.6667,4387,-58.951,49.951,16,25,1,0,0,0,0,0,0,0,0,1,0,0,0,0,0,0,0,0,0,0,4.8,56.8,57.2,3.4,1,1461831,2,3.131,61,0,0,41,40,0,0,3.121,8,,0,,24,0,0,3.092,3.121,0,3.092,0,39,0,40,0,3.127,62,0,0,1,0,0,256,,38,,3,0,,0,3.128,5718322,40,0,0,1,0,1710382429720,20000,,12337,3.13,0,0,0,0,4,0,12854,1489.518,0,3.114,3.115,3354936,13544,3.115,0,6,3.133,3.126,0,104,3.275,0,2588.38,10.25,37.2,,,0,40,0,99,39,3.135,0,,1,14,,12.203,0,49,60,0,,38,3.126,68365,,3.135,66,,1,3.122,4272433,0,22,1,0,3.119,,1,0,1,0,0,0.043,0,2,0,3.117,41,5.06,5.04,0,0,4469048,0,0
4,1710382429038,14/03/2024 07:43:49.038,95.8333,4426,-14.161,50.273,0,25,1,0,0,0,0,0,0,0,0,1,0,0,0,0,0,0,0,0,0,0,4.9,2.7,68.5,3.0,1,1461813,2,3.135,60,0,0,41,40,0,0,3.142,1,1,0,20,28,0,0,3.123,3.129,0,3.124,0,39,0,40,0,3.14,62,0,0,1,0,0,256,,38,0,3,0,0,0,3.154,5718322,40,0,0,1,0,1710382429038,20000,,12337,3.138,0,0,0,0,4,0,12854,1489.518,0,3.155,3.129,3354936,13315,3.123,0,6,3.164,3.143,0,104,3.293,0,2592.92,10.268,37.2,,3,0,40,0,99,39,3.165,0,115,1,14,,12.216,0,49,60,0,0,38,3.155,68426,4500,3.165,66,1,1,3.151,4272433,0,23,1,0,3.126,0,1,0,1,0,0,0.042,0,2,0,3.142,41,5.078,5.065,0,0,4469048,0,0
4,1710382428378,14/03/2024 07:43:48.378,91.6667,4455,-91.955,48.989,37,25,1,0,0,0,0,0,0,0,0,1,0,0,0,0,0,0,0,0,0,0,4.6,97.6,68.2,3.5,1,1461813,2,3.075,60,0,0,41,40,0,0,3.061,8,,0,,27,0,0,3.017,3.064,0,3.017,0,39,0,40,0,3.067,62,0,0,1,0,0,256,,38,,3,0,,0,3.057,5718322,40,0,0,1,0,1710382428378,20000,,12337,3.079,0,0,0,0,4,0,12854,1489.518,0,3.034,3.063,3354936,13093,3.042,0,6,3.082,3.081,0,104,3.295,0,2592.92,10.268,37.2,,,0,40,0,99,39,3.082,0,,1,15,,12.186,0,49,60,0,,38,3.072,68426,,3.068,66,,1,3.063,4272433,0,22,1,0,3.065,,1,0,1,0,0,0.065,0,2,0,3.06,41,5.068,5.068,0,0,4469048,0,0
4,1710382427738,14/03/2024 07:43:47.738,95.8333,4400,-4.751,50.582,0,25,1,0,0,0,0,0,0,0,0,1,0,0,0,0,0,0,0,0,0,0,4.9,0.1,72.7,2.9,1,1461801,2,3.175,60,0,0,41,40,0,0,3.161,8,1,0,20,28,0,0,3.141,3.155,0,3.141,0,39,0,40,0,3.159,62,0,0,1,0,0,256,,38,0,3,0,0,0,3.161,5718322,40,0,0,1,0,1710382427738,20000,,12337,3.162,0,0,0,0,4,0,12854,1489.518,0,3.164,3.149,3354936,12862,3.172,0,6,3.168,3.158,0,104,3.285,0,2595.95,10.28,37.2,,3,0,40,0,99,39,3.175,0,115,1,2,,12.233,0,49,60,0,0,38,3.161,68465,4500,3.171,66,1,1,3.161,4272433,0,23,1,0,3.171,0,1,0,1,0,0,0.034,0,2,0,3.154,41,5.07,5.051,0,0,4469048,0,0
4,1710382427098,14/03/2024 07:43:47.098,91.6667,4465,-86.435,48.939,43,25,1,0,0,0,0,0,0,0,0,1,0,0,0,0,0,0,0,0,0,0,4.6,85.3,80.8,3.3,1,1461801,2,3.078,61,0,0,41,40,0,0,3.058,8,,0,,27,0,0,3.022,3.056,0,3.022,0,39,0,40,0,3.064,62,0,0,1,0,0,256,,38,,3,0,,0,3.065,5718322,40,0,0,1,0,1710382427098,20000,,12337,3.069,0,0,0,0,4,0,12854,1489.518,0,3.037,3.052,3354936,12648,3.056,0,6,3.067,3.072,0,104,3.291,0,2595.95,10.28,37.2,,,0,40,0,99,39,3.078,0,,1,2,,12.182,0,49,60,0,,38,3.059,68465,,3.074,66,,1,3.068,4272433,0,22,1,0,3.052,,1,0,1,0,0,0.056,0,2,0,3.048,41,5.055,5.026,0,0,4469048,0,0
4,1710382426438,14/03/2024 07:43:46.438,20.8333,4434,,,43,,,,,,,,,,,,0,0,0,0,0,0,0,0,0,0,4.6,112.5,67.0,3.5,,,,,,0,,,,0,,,,,,,5,,,,,,,,,,,0,,,,,1,,,256,,,,3,0,,,,,,0,,,,1710382426438,,,,,,,,,,,,,0,,,,12411,,,,,,,104,,,,,,,,,,,,,,0,,1,,,,0,,60,,,,,,,,,,,,,,5,,0,,,,0,,,0,,,,,,,,,,0,,,
4,1710382425798,14/03/2024 07:43:45.798,91.6667,4386,-48.465,50.077,80,26,1,0,0,0,0,0,0,0,0,1,0,0,0,0,0,0,0,0,0,0,4.9,34.8,80.7,3.0,1,1461765,2,3.137,60,0,0,41,40,0,0,3.129,8,1,0,20,26,0,0,3.096,3.125,0,3.096,0,39,0,40,0,3.127,62,0,0,1,0,0,256,,38,0,3,0,0,0,3.14,5718322,40,0,0,1,0,1710382425798,20000,,12337,3.134,0,0,0,0,4,0,,1489.518,0,3.124,3.118,,12189,3.128,0,6,3.14,3.128,0,104,3.284,0,2605.05,10.316,37.2,,3,0,40,0,99,39,3.143,0,115,1,10,,12.182,0,49,60,0,0,38,3.136,68586,4500,3.142,66,1,1,3.143,,0,22,1,0,3.128,0,1,0,1,0,0,0.047,0,2,0,3.131,41,5.055,5.028,0,0,4469048,0,0
4,1710382425098,14/03/2024 07:43:45.098,91.6667,4456,-60.334,49.417,92,26,1,0,0,0,0,0,0,0,0,1,0,0,0,0,0,0,0,0,0,0,4.7,57.9,98.7,3.0,1,1461765,2,3.094,60,0,0,41,40,0,0,3.088,8,,0,,22,0,0,3.059,3.087,0,3.059,0,39,0,40,0,3.093,62,0,0,1,0,0,256,,38,,3,0,,0,3.095,5718322,40,0,0,1,0,1710382425098,20000,,12337,3.097,0,0,0,0,4,0,12854,1489.518,0,3.084,3.079,3354936,11956,3.075,0,6,3.102,3.097,0,104,3.29,0,2605.05,10.316,37.2,,,0,40,0,99,39,3.105,0,,1,14,,12.25,0,49,60,0,,38,3.091,68586,,3.105,66,,1,3.096,4272433,0,22,1,0,3.083,,1,0,1,0,0,0.046,0,2,0,3.08,41,5.078,5.061,0,0,4469048,0,0
4,1710382424458,14/03/2024 07:43:44.458,20.8333,4452,,,92,,,,,,,,,,,,0,0,0,0,0,0,0,0,0,0,4.6,115.6,101.5,3.2,,,,,,0,,,,0,,,,,,,5,,,,,,,,,,,0,,,,,1,,,256,,,,3,0,,,,,,0,,,,1710382424458,,,,,,,,,,,,,0,,,,11717,,,,,,,104,,,,,,,,,,,,,,0,,1,,,,0,,60,,,,,,,,,,,,,,5,,0,,,,0,,,0,,,,,,,,,,0,,,
4,1710382423818,14/03/2024 07:43:43.818,91.6667,4378,-119.511,48.491,97,26,1,0,0,0,0,0,0,0,0,1,0,0,0,0,0,0,0,0,0,0,4.6,115.2,99.4,3.2,1,1461703,2,3.044,61,0,0,40,40,0,0,3.03,8,,0,,27,0,0,2.981,3.034,0,2.981,0,39,0,40,0,3.037,62,0,0,1,0,0,256,,38,,3,0,,0,3.035,5718322,40,0,0,1,0,1710382423818,20000,,12337,3.047,0,0,0,0,4,0,12854,1489.518,0,3.01,3.024,3354936,11511,3.021,0,3,3.043,3.049,0,103,3.293,0,2620.7,10.378,37.2,,,0,40,0,99,39,3.049,0,,1,9,,12.178,0,49,60,0,,38,3.031,70448,,3.047,66,,1,3.037,4272433,0,22,1,0,3.029,,1,0,1,0,0,0.068,0,2,0,3.022,40,5.058,5.037,0,0,4469048,0,0
4,1710382423158,14/03/2024 07:43:43.158,70.8333,4308,-113.776,48.5,100,26,1,0,0,0,0,0,0,0,0,1,0,0,0,0,0,0,0,0,0,0,4.6,114.9,97.4,3.3,1,1461703,2,,60,0,0,40,40,0,0,,,,0,,17,0,0,,,0,,0,39,0,40,0,,62,0,0,1,0,0,256,,38,,3,0,,0,,5718322,40,0,0,1,0,1710382423158,20000,,12337,,0,0,0,0,4,0,12854,1489.518,0,,,3354936,11267,,0,3,,,0,103,3.293,0,2620.7,10.378,37.2,,,0,40,0,99,39,,0,,1,,,12.169,0,49,60,0,,38,,70448,,,65,,1,,4272433,0,17,1,0,,,1,0,1,0,0,0.064,0,2,0,,40,5.075,5.065,0,0,4469048,0,0
4,1710382422518,14/03/2024 07:43:42.518,95.8333,4237,-114.688,48.552,100,26,1,0,0,0,0,0,0,0,0,1,0,0,0,0,0,0,0,0,0,0,4.6,114.8,95.6,3.3,1,1461671,2,3.047,60,0,0,40,40,0,0,3.034,8,1,0,20,28,0,0,2.991,3.038,0,2.991,0,39,0,40,0,3.043,62,0,0,1,0,0,256,,38,0,3,0,0,0,3.04,5718322,40,0,0,1,0,1710382422518,20000,,12337,3.048,0,0,0,0,4,0,12854,1489.518,0,3.012,3.029,3354936,11058,3.023,0,3,3.045,3.047,0,103,3.295,0,2628.78,10.41,37.2,,3,0,40,0,99,39,3.049,0,115,1,14,,12.224,0,49,60,0,0,38,3.036,70544,4500,3.049,65,1,1,3.042,4272433,0,23,1,0,3.034,0,1,0,1,0,0,0.058,0,2,0,3.028,40,5.083,5.068,0,0,4469048,0,0
4,1710382421878,14/03/2024 07:43:41.878,41.6667,4149,,,100,,,,,,,,,,,,0,0,0,0,0,0,0,0,0,0,4.6,114.5,94.2,3.3,,,,3.049,,0,,,,0,,3.036,8,,,,14,,,2.992,3.04,,2.992,,,,,0,3.046,,,,1,,,256,,,,3,0,,,3.04,,,0,,,,1710382421878,,,,3.052,,,,,,,,,0,3.015,3.03,,10826,3.024,,,3.051,3.054,,103,,,,,,,,,,,,,3.054,0,,1,9,,,0,,60,,,,3.038,,,3.05,,,,3.043,,,10,,0,3.037,,,0,,,0,,,,,3.03,,,,,0,,,
4,1710382421218,14/03/2024 07:43:41.218,91.6667,4063,-115.834,48.645,90,26,1,0,0,0,0,0,0,0,0,1,0,0,0,0,0,0,0,0,0,0,4.6,114.6,93.3,3.3,0,1461640,2,3.057,60,0,0,40,40,0,0,3.04,8,,0,,22,0,0,2.991,3.045,0,2.991,0,39,0,40,0,3.047,62,0,0,1,0,0,256,,38,,3,0,,0,3.042,5718322,40,0,0,1,0,1710382421218,20000,,12337,3.054,0,0,0,0,4,0,12854,1489.518,0,3.019,3.037,3354936,10602,3.029,0,3,3.052,3.058,0,103,3.293,0,2636.61,10.441,37.2,,,0,40,0,99,39,3.059,0,,1,14,,12.178,0,49,60,0,,38,3.043,70639,,3.059,65,,1,3.043,4272433,0,22,1,0,3.041,,1,0,1,0,0,0.068,0,2,0,3.028,40,5.063,5.065,0,0,4469048,0,0
4,1710382420578,14/03/2024 07:43:40.578,95.8333,3961,-111.319,48.676,86,26,1,0,0,0,0,0,0,0,0,1,0,0,0,0,0,0,0,0,0,0,4.6,113.8,93.5,3.3,0,1461608,2,3.055,60,0,0,40,40,0,0,3.042,8,1,0,20,28,0,0,3.002,3.039,0,3.002,0,39,0,40,0,3.051,62,0,0,1,0,0,256,,38,0,3,0,0,0,3.046,5718322,40,0,0,1,0,1710382420578,20000,,12337,3.057,0,0,0,0,4,0,12854,1489.518,0,3.019,3.039,3354936,10388,3.034,0,3,3.057,3.059,0,103,3.27,0,2644.69,10.473,37.2,,3,0,40,0,99,39,3.059,0,115,1,9,,12.186,0,49,60,0,0,38,3.039,70735,4500,3.054,65,1,1,3.053,4272433,0,23,1,0,3.039,0,1,0,1,0,0,0.057,0,2,0,3.033,40,5.053,5.033,0,0,4469048,0,0
4,1710382419918,14/03/2024 07:43:39.918,91.6667,3844,-111.626,48.751,65,26,1,0,0,0,0,0,0,0,0,1,0,0,0,0,0,0,0,0,0,0,4.6,114.9,94.5,3.4,0,1461577,2,3.061,60,0,0,40,40,0,0,3.046,8,,0,,25,0,0,3.0,3.051,0,3.0,0,39,0,40,0,3.057,62,0,0,1,0,0,256,,38,,3,0,,0,3.05,5718322,40,0,0,1,0,1710382419918,20000,,12337,3.06,0,0,0,0,4,0,12854,1489.518,0,3.027,3.042,3354936,10156,3.031,0,3,3.06,3.065,0,103,3.266,0,2652.52,10.504,37.2,,,0,40,0,99,39,3.065,0,,1,9,,12.173,0,49,60,0,,38,3.05,70830,,3.063,64,,1,3.05,4272433,0,22,1,0,3.045,,1,0,1,0,0,0.065,0,2,0,3.039,40,5.05,5.026,0,0,4469048,0,0
4,1710382419278,14/03/2024 07:43:39.278,95.8333,3738,-112.168,48.78,68,26,1,0,0,0,0,0,0,0,0,1,0,0,0,0,0,0,0,0,0,0,4.6,115.0,97.0,3.3,0,1461577,2,3.061,60,0,0,40,40,0,0,3.048,8,1,0,20,28,0,0,3.003,3.056,0,3.003,0,39,0,40,0,3.057,62,0,0,1,0,0,256,,38,0,3,0,0,0,3.051,5718322,40,0,0,1,0,1710382419278,20000,,12337,3.062,0,0,0,0,4,0,12854,1489.518,0,3.028,3.041,3354936,9950,3.034,0,3,3.061,3.067,0,103,3.294,0,2652.52,10.504,37.2,,3,0,40,0,99,39,3.068,0,115,1,14,,12.182,0,49,60,0,0,38,3.048,70830,4500,3.068,64,1,1,3.055,4272433,0,23,1,0,3.049,0,1,0,1,0,0,0.065,0,2,0,3.039,40,5.075,5.068,0,0,4469048,0,0
4,1710382418638,14/03/2024 07:43:38.638,91.6667,3619,-110.407,48.83,76,26,1,0,0,0,0,0,0,0,0,1,0,0,0,0,0,0,0,0,0,0,4.6,114.8,100.4,3.3,0,1461547,2,3.063,60,0,0,40,40,0,0,3.051,8,,0,,26,0,0,3.005,3.054,0,3.005,0,39,0,40,0,3.062,62,0,0,1,0,0,256,,38,,3,0,,0,3.053,5718322,40,0,0,1,0,1710382418638,20000,,12337,3.066,0,0,0,0,4,0,12854,1489.518,0,3.034,3.045,3354936,9711,3.041,0,3,3.064,3.069,0,103,3.293,0,2660.1,10.534,37.2,,,0,40,0,99,39,3.069,0,,1,9,,12.178,0,49,60,0,,38,3.053,70921,,3.068,64,,1,3.058,4272433,0,22,1,0,3.051,,1,0,1,0,0,0.064,0,2,0,3.044,40,5.058,5.063,0,0,4469048,0,0
4,1710382417978,14/03/2024 07:43:37.978,91.6667,3469,-107.417,48.877,65,26,1,0,0,0,0,0,0,0,0,1,0,0,0,0,0,0,0,0,0,0,4.6,115.0,104.1,3.2,0,1461547,2,3.067,60,0,0,40,40,0,0,3.054,8,,0,,27,0,0,3.012,3.057,0,3.012,0,39,0,40,0,3.066,62,0,0,1,0,0,256,,38,,3,0,,0,3.057,5718322,40,0,0,1,0,1710382417978,20000,,12337,3.068,0,0,0,0,4,0,12854,1489.518,0,3.038,3.049,3354936,9492,3.044,0,3,3.067,3.068,0,104,3.293,0,2660.1,10.534,37.2,,,0,40,0,99,39,3.069,0,,1,14,,12.178,0,49,60,0,,38,3.054,70921,,3.069,64,,1,3.06,4272433,0,22,1,0,3.055,,1,0,1,0,0,0.057,0,2,0,3.046,40,5.063,5.065,0,0,4469048,0,0
4,1710382417338,14/03/2024 07:43:37.338,95.8333,3332,-109.332,48.931,65,26,1,0,0,0,0,0,0,0,0,1,0,0,0,0,0,0,0,0,0,0,4.6,115.3,108.3,3.1,0,1461517,2,3.073,60,0,0,40,40,0,0,3.058,8,1,0,20,28,0,0,3.014,3.061,0,3.014,0,39,0,40,0,3.065,62,0,0,1,0,0,256,,38,0,3,0,0,0,3.062,5718322,40,0,0,1,0,1710382417338,20000,,12337,3.075,0,0,0,0,4,0,12854,1489.518,0,3.038,3.053,3354936,9261,3.045,0,3,3.07,3.072,0,104,3.295,0,2667.67,10.564,37.2,,3,0,40,0,99,39,3.075,0,115,1,5,,12.263,0,49,59,0,0,38,3.061,71011,4500,3.074,64,1,1,3.065,4272433,0,23,1,0,3.055,0,1,0,1,0,0,0.061,0,2,0,3.048,40,5.083,5.068,0,0,4469048,0,0
4,1710382416698,14/03/2024 07:43:36.698,91.6667,3188,-107.571,48.979,65,26,1,0,0,0,0,0,0,0,0,1,0,0,0,0,0,0,0,0,0,0,4.6,115.7,112.5,3.0,0,1461487,2,3.072,60,0,0,40,40,0,0,3.061,8,,0,,27,0,0,3.016,3.066,0,3.016,0,39,0,40,0,3.07,62,0,0,1,0,0,256,,38,,3,0,,0,3.065,5718322,40,0,0,1,0,1710382416698,20000,,12337,3.074,0,0,0,0,4,0,12854,1489.518,0,3.044,3.058,3354936,9045,3.05,0,3,3.074,3.075,0,104,3.277,0,2675.25,10.594,37.2,,,0,40,0,99,39,3.075,0,,1,9,,12.182,0,49,59,0,,38,3.063,71102,,3.074,63,,1,3.068,4272433,0,22,1,0,3.06,,1,0,1,0,0,0.059,0,2,0,3.05,40,5.055,5.028,0,0,4469048,0,0
4,1710382416058,14/03/2024 07:43:36.058,20.8333,3064,,,65,,,,,,,,,,,,0,0,0,0,0,0,0,0,0,0,4.6,114.9,116.9,2.9,,,,,,0,,,,0,,,,,,,5,,,,,,,,,,,0,,,,,1,,,256,,,,3,0,,,,,,0,,,,1710382416058,,,,,,,,,,,,,0,,,,8810,,,,,,,104,,,,,,,,,,,,,,0,,1,,,,0,,59,,,,,,,,,,,,,,5,,0,,,,0,,,0,,,,,,,,,,0,,,
4,1710382415338,14/03/2024 07:43:35.338,95.8333,2842,-106.803,49.099,67,26,1,0,0,0,0,0,0,0,0,1,0,0,0,0,0,0,0,0,0,0,4.7,113.7,119.1,2.7,0,1461457,2,3.082,60,0,0,40,40,0,0,3.068,8,1,0,20,28,0,0,3.026,3.073,0,3.026,0,39,0,40,0,3.075,62,0,0,1,0,0,256,,38,0,3,0,0,0,3.072,5718322,40,0,0,1,0,1710382415338,20000,,12337,3.08,0,0,0,0,4,0,12854,1489.518,0,3.046,3.066,3354936,8567,3.053,0,3,3.082,3.085,0,104,3.293,0,2682.82,10.624,37.2,,3,0,40,0,99,39,3.085,0,115,1,9,,12.169,0,49,59,0,0,38,3.072,71193,4500,3.083,63,1,1,3.075,4272433,0,23,1,0,3.068,0,1,0,1,0,0,0.059,0,2,0,3.061,40,5.075,5.065,0,0,4469048,0,0
4,1710382414698,14/03/2024 07:43:34.698,91.6667,2664,-100.147,49.306,67,26,1,0,0,0,0,0,0,0,0,1,0,0,0,0,0,0,0,0,0,0,4.7,106.1,119.1,2.5,0,1461429,2,3.092,60,0,0,40,40,0,0,3.081,8,,0,,22,0,0,3.04,3.086,0,3.04,0,39,0,40,0,3.089,62,0,0,1,0,0,256,,38,,3,0,,0,3.088,5718322,40,0,0,1,0,1710382414698,20000,,12337,3.092,0,0,0,0,4,0,12854,1489.518,0,3.059,3.077,3354936,8351,3.074,0,3,3.095,3.095,0,104,3.274,0,2689.89,10.652,37.2,,,0,40,0,99,39,3.095,0,,1,9,,12.186,0,49,59,0,,38,3.081,71277,,3.095,63,,1,3.089,4272433,0,22,1,0,3.081,,1,0,1,0,0,0.055,0,2,0,3.073,40,5.055,5.03,0,0,4469048,0,0
4,1710382414058,14/03/2024 07:43:34.058,45.8333,2456,,,57,,,,,,,,,,,,0,0,0,0,0,0,0,0,0,0,4.7,97.5,119.5,2.3,,1461429,,,,0,,,,0,,,,1,,20,11,,,,,,,,,,,0,,,,,1,,,256,,,0,3,0,0,,,,,0,,,,1710382414058,20000,,,,,,,,,,12854,1489.518,0,,,3354936,8117,,,,,,,104,3.293,,2689.89,,37.2,,3,,,,,,,0,115,1,,,12.178,0,,59,,0,,,71277,4500,,,1,,,4272433,,11,,0,,0,,0,,,0,,,,,,,5.063,5.065,,0,,,
4,1710382413398,14/03/2024 07:43:33.398,95.8333,2237,-88.893,49.693,59,26,1,0,0,0,0,0,0,0,0,1,0,0,0,0,0,0,0,0,0,0,4.8,89.1,120.2,2.2,0,1461405,2,3.117,60,0,0,40,40,0,0,3.105,8,1,0,20,28,0,0,3.075,3.107,0,3.075,0,39,0,40,0,3.111,62,0,0,1,0,0,256,,38,0,3,0,0,0,3.112,5718322,40,0,0,1,0,1710382413398,20000,,12337,3.114,0,0,0,0,4,0,12854,1489.518,0,3.09,3.103,3354936,7901,3.093,0,3,3.114,3.117,0,104,3.274,0,2695.95,10.676,37.2,,3,0,40,0,99,39,3.117,0,115,1,2,,12.178,0,49,59,0,0,38,3.108,71350,4500,3.117,63,1,1,3.111,4272433,0,23,1,0,3.108,0,1,0,1,0,0,0.042,0,2,0,3.096,40,5.05,5.028,0,0,4469048,0,0
4,1710382412758,14/03/2024 07:43:32.758,75.0,2082,-83.066,49.858,59,27,1,0,0,0,0,0,0,0,0,1,0,0,0,0,0,0,0,0,0,0,4.8,82.4,122.2,2.0,0,1461383,2,3.124,60,0,0,40,40,0,0,3.116,8,,0,,20,0,0,3.086,3.115,0,3.086,0,39,0,40,0,3.122,62,0,0,1,0,0,256,,38,,3,0,,0,3.119,5718322,40,0,0,1,0,1710382412758,,,12337,3.125,0,0,0,0,4,0,,1489.518,0,3.102,3.113,,7678,3.107,0,3,3.126,3.128,0,104,,0,,10.698,,,,0,40,0,99,39,3.128,0,,1,9,,,0,49,59,0,,38,3.116,,,3.128,63,,1,3.124,,0,18,1,0,3.114,,1,0,1,0,0,0.042,0,2,0,3.109,40,,,0,0,4469048,0,0
4,1710382412118,14/03/2024 07:43:32.118,91.6667,1857,-71.127,50.029,60,27,1,0,0,0,0,0,0,0,0,1,0,0,0,0,0,0,0,0,0,0,4.8,74.7,128.5,1.8,0,1461383,2,3.136,60,0,0,40,40,0,0,3.126,8,,0,,22,0,0,3.095,3.129,0,3.095,0,39,0,40,0,3.132,62,0,0,1,0,0,256,,38,,3,0,,0,3.131,5718322,40,0,0,1,0,1710382412118,20000,,12337,3.136,0,0,0,0,4,0,12854,1489.518,0,3.114,3.121,3354936,7450,3.119,0,3,3.135,3.136,0,104,3.293,0,2701.51,10.698,37.2,,,0,40,0,99,39,3.139,0,,1,14,,12.178,0,49,59,0,,38,3.128,71418,,3.139,63,,1,3.133,4272433,0,22,1,0,3.126,,1,0,1,0,0,0.044,0,2,0,3.119,40,5.065,5.063,0,0,4469048,0,0
4,1710382411458,14/03/2024 07:43:31.458,20.8333,1633,,,69,,,,,,,,,,,,0,0,0,0,0,0,0,0,0,0,4.8,85.6,126.1,1.7,,,,,,0,,,,0,,,,,,,5,,,,,,,,,,,0,,,,,1,,,256,,,,3,0,,,,,,0,,,,1710382411458,,,,,,,,,,,,,0,,,,7213,,,,,,,104,,,,,,,,,,,,,,0,,1,,,,0,,59,,,,,,,,,,,,,,5,,0,,,,0,,,0,,,,,,,,,,0,,,
4,1710382410818,14/03/2024 07:43:30.818,95.8333,1345,-60.794,50.582,50,27,1,0,0,0,0,0,0,0,0,1,0,0,0,0,0,0,0,0,0,0,4.9,65.3,69.7,1.5,0,1461347,2,3.158,60,0,0,40,40,0,0,3.15,8,1,0,20,49,0,0,3.128,3.148,0,3.128,0,39,0,40,0,3.152,62,0,0,1,0,0,256,,38,0,3,0,0,0,3.155,5718322,39,0,0,1,0,1710382410818,20000,,12337,3.156,0,0,0,0,4,0,12854,1489.518,0,3.145,3.149,3354936,7007,3.141,0,3,3.165,3.163,0,104,3.293,0,2710.6,10.734,37.2,,3,0,40,0,99,39,3.163,0,115,1,9,,12.178,0,49,59,0,0,38,3.161,71527,4500,3.168,62,1,1,3.157,4272433,0,23,1,0,3.146,0,1,0,1,0,0,0.035,0,2,0,3.147,40,5.073,5.065,0,0,4469048,0,0
4,1710382410098,14/03/2024 07:43:30.098,91.6667,1153,-27.566,51.161,27,27,1,0,0,0,0,0,0,0,0,1,0,0,0,0,0,0,0,0,0,0,5.0,27.4,35.5,1.1,0,1461347,2,3.202,60,0,0,40,40,0,0,3.197,8,,0,,27,0,0,3.184,3.198,0,3.184,0,39,0,40,0,3.2,62,0,0,1,0,0,256,,38,,3,0,,0,3.199,5718322,39,0,0,1,0,1710382410098,20000,,12337,3.202,0,0,0,0,4,0,12854,1489.518,0,3.191,3.194,3354936,6756,3.196,0,3,3.202,3.2,0,104,3.295,0,2710.6,10.734,37.2,,,0,40,0,99,39,3.204,0,,1,14,,12.186,0,49,59,0,,38,3.197,71527,,3.204,63,,1,3.2,4272433,0,22,1,0,3.197,,1,0,1,0,0,0.02,0,2,0,3.195,40,5.068,5.068,0,0,4469048,0,0
4,1710382409458,14/03/2024 07:43:29.458,91.6667,1067,-4.444,51.581,11,27,1,0,0,0,0,0,0,0,0,1,0,0,0,0,0,0,0,0,0,0,5.1,2.4,24.0,1.0,0,1461345,2,3.227,60,0,0,40,40,0,0,3.223,8,,0,,30,0,0,3.217,3.224,0,3.217,0,39,0,40,0,3.225,62,0,0,1,0,0,256,,38,,3,0,,0,3.225,5718322,39,0,0,1,0,1710382409458,20000,,12337,3.228,0,0,0,0,4,0,12854,1489.518,0,3.22,3.22,3354936,6527,3.225,0,3,3.225,3.222,0,104,3.293,0,2711.11,10.736,37.2,,,0,40,0,99,39,3.228,0,,1,5,,12.182,0,49,59,0,,38,3.223,71533,,3.227,63,,1,3.227,4272433,0,22,1,0,3.225,,1,0,1,0,0,0.011,0,2,0,3.221,40,5.065,5.063,0,0,4469048,0,0
4,1710382408798,14/03/2024 07:43:28.798,95.8333,1235,0.993,51.649,0,27,1,0,0,0,0,0,0,0,0,1,0,0,0,0,0,0,0,0,0,0,5.1,6551.7,50.2,0.9,0,1461339,2,3.23,60,0,0,40,40,0,0,3.228,7,1,0,20,25,0,0,3.223,3.226,0,3.224,0,39,0,40,0,3.229,62,0,0,1,0,0,256,,38,0,3,0,0,0,3.229,5718322,39,0,0,1,0,1710382408798,20000,,12337,3.231,0,0,0,0,4,0,12854,1489.518,0,3.228,3.223,3354936,6311,3.23,0,3,3.23,3.225,0,104,3.294,0,2712.62,10.742,37.2,,3,0,40,0,99,39,3.232,0,115,1,14,,12.182,0,49,59,0,0,38,3.228,71551,4500,3.232,63,1,1,3.231,4272433,0,23,1,0,3.228,0,1,0,1,0,0,0.009,0,2,0,3.225,40,5.073,5.065,0,0,4469048,0,0
4,1710382408158,14/03/2024 07:43:28.158,20.8333,1376,,,23,,,,,,,,,,,,0,0,0,0,0,0,0,0,0,0,4.9,35.0,104.5,1.3,,,,,,0,,,,0,,,,,,,5,,,,,,,,,,,0,,,,,1,,,256,,,,3,0,,,,,,0,,,,1710382408158,,,,,,,,,,,,,0,,,,6074,,,,,,,104,,,,,,,,,,,,,,0,,1,,,,0,,59,,,,,,,,,,,,,,5,,0,,,,0,,,0,,,,,,,,,,0,,,
4,1710382407518,14/03/2024 07:43:27.518,95.8333,1191,-37.672,50.936,36,27,1,0,0,0,0,0,0,0,0,1,0,0,0,0,0,0,0,0,0,0,5.0,38.1,94.6,1.2,0,1461329,2,3.186,60,0,0,40,40,0,0,3.183,8,1,0,20,23,0,0,3.173,3.181,0,3.173,0,39,0,40,0,3.184,62,0,0,1,0,0,256,,38,0,3,0,0,0,3.187,5718322,39,0,0,1,0,1710382407518,20000,,12337,3.187,0,0,0,0,4,0,12854,1489.518,0,3.175,3.177,3354936,5860,3.178,0,3,3.189,3.19,0,104,3.268,0,2715.15,10.752,37.2,,3,0,40,0,99,39,3.191,0,115,1,14,,12.178,0,49,59,0,0,38,3.185,71581,4500,3.191,63,1,1,3.19,4272433,0,23,1,0,3.181,0,1,0,1,0,0,0.018,0,2,0,3.182,40,5.05,5.028,0,0,4469048,0,0
4,1710382406878,14/03/2024 07:43:26.878,91.6667,1110,-72.048,50.212,59,27,1,0,0,0,0,0,0,0,0,1,0,0,0,0,0,0,0,0,0,0,4.8,72.8,120.0,1.3,0,1461329,2,3.146,60,0,0,40,40,0,0,3.138,8,,0,,27,0,0,3.108,3.139,0,3.108,0,39,0,40,0,3.143,62,0,0,1,0,0,256,,38,,3,0,,0,3.142,5718322,39,0,0,1,0,1710382406878,20000,,12337,3.146,0,0,0,0,4,0,12854,1489.518,0,3.124,3.136,3354936,5647,3.129,0,3,3.147,3.15,0,104,3.293,0,2715.15,10.752,37.2,,,0,40,0,99,39,3.15,0,,1,9,,12.178,0,49,59,0,,38,3.138,71581,,3.15,63,,1,3.143,4272433,0,22,1,0,3.138,,1,0,1,0,0,0.042,0,2,0,3.133,40,5.065,5.063,0,0,4469048,0,0
4,1710382406538,14/03/2024 07:43:26.538,95.8333,997,-55.203,50.691,60,27,1,0,0,0,0,0,0,0,0,1,0,0,0,0,0,0,0,0,0,0,4.9,62.1,89.5,1.1,0,1461316,2,3.171,60,0,0,40,40,0,0,3.168,8,1,0,20,27,0,0,3.149,3.164,0,3.149,0,39,0,40,0,3.174,62,0,0,1,0,0,256,,38,0,3,0,0,0,3.171,5718322,39,0,0,1,0,1710382406538,20000,,12337,3.179,0,0,0,0,4,0,12854,1489.518,0,3.155,3.169,3354936,5518,3.158,0,3,3.175,3.178,0,104,3.294,0,2718.43,10.765,37.2,,3,0,40,0,99,39,3.179,0,115,1,5,,12.169,0,49,59,0,0,38,3.17,71620,4500,3.175,62,1,1,3.174,4272433,0,23,1,0,3.163,0,1,0,1,0,0,0.03,0,2,0,3.166,40,5.075,5.065,0,0,4469048,0,0