File: Automationdashboard/relevant_data_beforefault_modified.csv
id,timestamp,localtime,percentage_of_can_ids,MotorSpeed_340920578,PackCurr_6,PackVol_6,Throttle_408094978,SOC_8,DchgFetStatus_9,DchgOverTempProt_9,DchgUnderTempProt_9,PackUnderVolProt_9,PackOverVolProt_9,DchgOverCurrProt_9,CellOverVolProt_9,ChgPeakProt_9,FetFailure_9,IgnitionStatus_12,Throttle_Error_408094978,DriveError_Motor_hall_408094978,Motor_Stalling_408094978,Motor_Phase_loss_408094978,Controller_Over_Temeprature_408094978,Motor_Over_Temeprature_408094978,Overcurrent_Fault_408094978,DriveError_Controller_OverVoltag_408094978,Controller_Undervoltage_408094978,MOSFET_Protection_408094978,BatteryVoltage_340920578,BatteryCurrent_340920578,AC_Current_340920579,AC_Voltage_340920580,CellUnderVolWarn_9,Dchg_Accumulative_Ah_14,ChargerType_12,CellVol02_1,PcbTemp_12,Reverse_Pulse_408094978,LatchProtection_12,Temp6_10,Temp3_10,ForwardParking_Mode_Ack_408094978,CellOverDevProt_9,AvgCellVol_5,MinVoltId_5,DriveStatus1_Ride_418513673,LoadDetection_12,Set_Regen_418513673,number_of_records,ChgOverCurrProt_9,BuzzerStatus_12,MinCellVol_5,CellVol04_1,CellOverVolWarn_9,CellVol08_2,CellBalFeatureStatus_12,Temp2_10,CellUnderVolProt_9,Temp8_10,Hill_hold_Ack_408094978,CellVol06_2,AfeTemp_12,LatchType_12,DI1_12,Wakeup_Ack_408094978,PreChgFetStatus_9,DchgOverTempWarn_9,MCU_ID_408094979,BMS_Serial_No_MUX_11,Temp1_10,DriveStatus2_Reverse_Request_418513673,Mode_Ack_408094978,ModeR_Pulse_408094978,VCU_ID_418513673,ResSocProt_9,CellVol12_3,HwVer_13,Temp4_10,Side_Stand_Ack_408094978,DchgUnderTempWarn_9,ChgFetStatus_9,ImmoChg_12,timestamp.1,ChargeSOP_16,BMS_Serial_No__1_7_11,FWSubVer_13,CellVol05_2,ShortCktProt_9,DO2_12,BattLowSocWarn_9,ChgUnderTempWarn_9,BmsStatus_8,ChgOverTempProt_9,InternalFWSubVer_21,Chg_Accumulative_Ah_14,Park_Pulse_408094978,CellVol16_4,CellVol07_2,InternalFWVer_21,sequence,CellVol01_1,LedStatus_9,MaxTempId_7,CellVol15_4,CellVol09_3,DschgPeakProt_9,Motor_Temperature_408094979,_3v3Vol_15,ChargerDetection_12,Actual_SoC_18,SOCAh_8,Usable_Capacity_Ah_18,BMS_Serial_No_Bytes_8_14_11,Mode_Request_418513673,PackOverVolWarn_9,Temp7_10,ChgOverTempWarn_9,SOH_8,Temp5_10,MaxCellVol_5,Direction_Ack_408094978,DC_Current_Limit_418513673,Ride_Ack_408094978,MaxVoltId_5,BMS_Serial_No__15_11,_12vVol_15,MCU_Fault_Code_408094979,CycleCount_7,MCU_Temperature_408094979,TempSenseFault_9,Hill_Hold_418513673,MinTemp_7,CellVol13_4,DchgSOP_16,Drive_418513673,CellVol14_4,FetTemp_8,WakeUp_Request_418513673,PackUnderVolWarn_9,CellVol10_3,ConfigVer_21,FetTempProt_9,number_of_can_ids,ChgAuth_9,Brake_Pulse_408094978,CellVol03_1,ForwardPark_Request_418513673,CanCommDetection_12,DriveStatus_Regenerative_Braking_408094978,MinTempId_7,ResStatus_9,ModeL_Pulse_408094978,CellVolMinMaxDev_7,ImmoDchg_12,CellChemType_12,ChgUnderTempProt_9,CellVol11_3,MaxTemp_7,RefVol_15,_5vVol_15,DO1_12,SideStand_Pulse_408094978,FwVer_13,DI2_12,ActiveCellBalStatus_9
4,1711369915351,2024-03-25 18:01:55.351,91.6667,752.0,-0.461,50.182,100.0,52.0,1.0,0.0,0.0,0.0,0.0,0.0,0.0,0.0,0.0,1.0,0.0,0.0,0.0,0.0,1.0,0.0,0.0,0.0,0.0,0.0,5.0,0.0,0.0,0.0,0.0,1235879.0,2.0,3.12,61.0,0.0,0.0,47.0,47.0,0.0,0.0,3.136,8.0,,0.0,,22,0.0,0.0,3.085,3.123,0.0,3.085,0.0,47.0,0.0,47.0,0.0,3.123,62.0,0.0,0.0,1.0,0.0,0.0,272.0,,46.0,,2.0,0.0,,0.0,3.223,5718322.0,47.0,0.0,0.0,1.0,0.0,1711369915351,255000.0,,12337.0,3.122,0.0,0.0,0.0,0.0,4.0,0.0,12854.0,1289.084,0.0,3.088,3.12,3354936.0,8430,3.102,14.0,7.0,3.126,3.136,0.0,145.0,3.3,0.0,5270.96,20.873,37.2,,,0.0,48.0,0.0,99.0,46.0,3.225,0.0,,1.0,13.0,,12.173,0.0,41.0,85.0,0.0,,46.0,3.225,60000.0,,3.124,66.0,,0.0,3.124,4272433.0,0.0,22,1.0,0.0,3.123,,1.0,0.0,1.0,0.0,0.0,0.14,0.0,2.0,0.0,3.218,48.0,5.025,5.0,0.0,0.0,4469048.0,0.0,0.0
4,1711369911040,2024-03-25 18:01:51.040,91.6667,832.0,-106.294,50.026,100.0,53.0,1.0,0.0,0.0,0.0,0.0,0.0,0.0,0.0,0.0,1.0,0.0,0.0,0.0,0.0,0.0,0.0,0.0,0.0,0.0,0.0,4.8,105.1,231.6,1.3,0.0,1235733.0,2.0,3.128,61.0,0.0,0.0,47.0,47.0,0.0,0.0,3.126,8.0,,0.0,,27,0.0,0.0,3.095,3.131,0.0,3.095,0.0,47.0,0.0,47.0,0.0,3.135,62.0,0.0,0.0,1.0,0.0,0.0,256.0,,46.0,,2.0,0.0,,0.0,3.132,5718322.0,47.0,0.0,0.0,1.0,0.0,1711369911040,255000.0,,12337.0,3.132,0.0,0.0,0.0,0.0,4.0,0.0,12854.0,1289.084,0.0,3.095,3.129,3354936.0,6936,3.113,14.0,7.0,3.136,3.143,0.0,140.0,3.311,0.0,5307.82,21.019,37.2,,,0.0,48.0,0.0,99.0,45.0,3.143,0.0,,1.0,9.0,,12.178,0.0,41.0,81.0,0.0,,45.0,3.134,60000.0,,3.132,64.0,,0.0,3.133,4272433.0,0.0,22,1.0,0.0,3.132,,1.0,0.0,5.0,0.0,0.0,0.048,0.0,2.0,0.0,3.126,48.0,5.043,5.04,0.0,0.0,4469048.0,0.0,0.0
4,1711369906780,2024-03-25 18:01:46.780,20.8333,795.0,,,75.0,,,,,,,,,,,,0.0,0.0,0.0,0.0,0.0,0.0,0.0,0.0,0.0,0.0,4.9,79.1,191.9,1.1,,,,,,0.0,,,,0.0,,,,,,,5,,,,,,,,,,,0.0,,,,,1.0,,,256.0,,,,2.0,0.0,,,,,,0.0,,,,1711369906780,,,,,,,,,,,,,0.0,,,,5450,,,,,,,137.0,,,,,,,,,,,,,,0.0,,1.0,,,,0.0,,80.0,,,,,,,,,,,,,,5,,0.0,,,,0.0,,,0.0,,,,,,,,,,0.0,,,
4,1711369902500,2024-03-25 18:01:42.500,91.6667,848.0,-38.678,51.152,40.0,53.0,1.0,0.0,0.0,0.0,0.0,0.0,0.0,0.0,0.0,1.0,0.0,0.0,0.0,0.0,0.0,0.0,0.0,0.0,0.0,0.0,4.9,38.0,232.2,1.0,0.0,1235599.0,2.0,3.196,61.0,0.0,0.0,47.0,47.0,0.0,0.0,3.197,16.0,,0.0,,27,0.0,0.0,3.172,3.199,0.0,3.186,0.0,47.0,0.0,47.0,0.0,3.201,62.0,0.0,0.0,1.0,0.0,0.0,256.0,,46.0,,2.0,0.0,,0.0,3.201,5718322.0,47.0,0.0,0.0,1.0,0.0,1711369902500,255000.0,,12337.0,3.199,0.0,0.0,0.0,0.0,4.0,0.0,12854.0,1289.084,0.0,3.172,3.198,3354936.0,3988,3.189,0.0,7.0,3.204,3.204,0.0,133.0,3.31,0.0,5341.66,21.153,37.2,,,0.0,48.0,0.0,99.0,46.0,3.204,0.0,,1.0,9.0,,12.173,0.0,41.0,80.0,0.0,,46.0,3.203,60000.0,,3.202,63.0,,0.0,3.202,4272433.0,0.0,22,1.0,0.0,3.199,,1.0,0.0,1.0,0.0,0.0,0.032,0.0,2.0,0.0,3.197,48.0,5.045,5.042,0.0,0.0,4469048.0,0.0,0.0
4,1711369898200,2024-03-25 18:01:38.200,33.3333,942.0,,,79.0,,,,,,,,,,,,0.0,0.0,0.0,0.0,0.0,0.0,0.0,0.0,0.0,0.0,4.8,94.5,221.3,1.3,,,,,,0.0,,,,0.0,,,,1.0,,20.0,12,,,,,,,,,,,0.0,,,,,1.0,,,256.0,,,0.0,2.0,0.0,0.0,,,,,0.0,,,,1711369898200,,,,,,,,,,,12854.0,,0.0,,,3354936.0,2465,,,,,,,127.0,,,5376.51,,37.2,,2.0,,,,,,,0.0,105.0,1.0,,,,0.0,,78.0,,0.0,,,,2880.0,,,1.0,,,4272433.0,,8,,0.0,,0.0,,0.0,,,0.0,,,,,,,,,,0.0,,,
4,1711369893937,2024-03-25 18:01:33.937,95.8333,739.0,-78.67,50.91,78.0,53.0,1.0,0.0,0.0,0.0,0.0,0.0,0.0,0.0,0.0,1.0,0.0,0.0,0.0,0.0,0.0,0.0,0.0,0.0,0.0,0.0,4.9,77.5,222.9,1.1,0.0,1235369.0,2.0,3.184,61.0,0.0,0.0,47.0,47.0,0.0,0.0,3.181,8.0,1.0,0.0,20.0,24,0.0,0.0,3.157,3.186,0.0,3.157,0.0,47.0,0.0,47.0,0.0,3.187,62.0,0.0,0.0,1.0,0.0,0.0,256.0,,46.0,0.0,2.0,0.0,0.0,0.0,3.186,5718322.0,47.0,0.0,0.0,1.0,0.0,1711369893937,255000.0,,12337.0,3.187,0.0,0.0,0.0,0.0,4.0,0.0,12854.0,1289.084,0.0,3.157,3.184,3354936.0,996,3.172,14.0,7.0,3.189,3.195,0.0,124.0,3.305,0.0,5399.74,21.383,37.2,,2.0,0.0,48.0,0.0,99.0,45.0,3.195,0.0,105.0,1.0,9.0,,12.246,0.0,41.0,76.0,0.0,0.0,45.0,3.186,60000.0,2880.0,3.186,61.0,1.0,0.0,3.188,4272433.0,0.0,23,1.0,0.0,3.184,0.0,1.0,0.0,5.0,0.0,0.0,0.038,0.0,2.0,0.0,3.182,48.0,5.048,5.033,0.0,0.0,4469048.0,0.0,0.0
4,1711369889660,2024-03-25 18:01:29.660,95.8333,242.0,-55.102,51.627,87.0,54.0,1.0,0.0,0.0,0.0,0.0,0.0,0.0,0.0,0.0,1.0,0.0,0.0,0.0,0.0,0.0,0.0,0.0,0.0,0.0,0.0,5.0,54.5,164.9,0.7,0.0,1235293.0,2.0,3.227,61.0,0.0,0.0,47.0,47.0,0.0,0.0,3.226,16.0,1.0,0.0,20.0,23,0.0,0.0,3.209,3.229,0.0,3.211,0.0,47.0,0.0,47.0,0.0,3.229,62.0,0.0,0.0,1.0,0.0,0.0,256.0,,46.0,0.0,2.0,0.0,0.0,0.0,3.229,5718322.0,47.0,0.0,0.0,1.0,0.0,1711369889660,255000.0,,12337.0,3.23,0.0,0.0,0.0,0.0,1.0,0.0,12854.0,1289.084,0.0,3.209,3.227,3354936.0,65048,3.219,0.0,7.0,3.232,3.237,0.0,124.0,3.31,0.0,5418.93,21.459,37.2,,2.0,0.0,48.0,0.0,99.0,45.0,3.237,0.0,105.0,1.0,9.0,,12.182,0.0,41.0,74.0,0.0,0.0,45.0,3.231,60000.0,2880.0,3.231,60.0,1.0,0.0,3.231,4272433.0,0.0,23,1.0,0.0,3.228,0.0,1.0,0.0,5.0,0.0,0.0,0.028,0.0,2.0,0.0,3.227,48.0,5.038,5.04,0.0,0.0,4469048.0,0.0,0.0
4,1711369885360,2024-03-25 18:01:25.360,91.6667,1.0,-0.379,52.631,0.0,54.0,1.0,0.0,0.0,0.0,0.0,0.0,0.0,0.0,0.0,1.0,0.0,0.0,0.0,0.0,0.0,0.0,0.0,0.0,0.0,0.0,5.2,0.0,0.0,0.1,0.0,1235288.0,2.0,3.289,61.0,0.0,0.0,47.0,47.0,0.0,0.0,3.289,16.0,,0.0,,27,0.0,0.0,3.284,3.289,0.0,3.289,0.0,47.0,0.0,47.0,0.0,3.29,62.0,0.0,0.0,1.0,0.0,0.0,256.0,,46.0,,1.0,0.0,,0.0,3.29,5718322.0,47.0,0.0,0.0,1.0,0.0,1711369885360,255000.0,,12337.0,3.29,0.0,0.0,0.0,0.0,1.0,0.0,12854.0,1289.084,0.0,3.284,3.289,3354936.0,63561,3.289,0.0,7.0,3.291,3.289,0.0,126.0,3.312,0.0,5420.2,21.464,37.2,,,0.0,48.0,0.0,99.0,45.0,3.291,0.0,,1.0,10.0,,12.186,0.0,41.0,74.0,0.0,,45.0,3.291,60000.0,,3.291,60.0,,0.0,3.291,4272433.0,0.0,22,1.0,0.0,3.29,,1.0,0.0,5.0,0.0,0.0,0.007,0.0,2.0,0.0,3.289,48.0,5.053,5.044,0.0,0.0,4469048.0,0.0,0.0
4,1711369881080,2024-03-25 18:01:21.080,91.6667,1.0,-0.461,52.619,0.0,54.0,1.0,0.0,0.0,0.0,0.0,0.0,0.0,0.0,0.0,1.0,0.0,0.0,0.0,0.0,0.0,0.0,0.0,0.0,0.0,0.0,5.2,0.0,0.0,0.1,0.0,1235288.0,2.0,3.288,61.0,0.0,0.0,47.0,47.0,0.0,0.0,3.288,16.0,,0.0,,32,0.0,0.0,3.283,3.289,0.0,3.289,0.0,47.0,0.0,47.0,0.0,3.289,62.0,0.0,0.0,1.0,0.0,0.0,256.0,,46.0,,1.0,0.0,,0.0,3.289,5718322.0,47.0,0.0,0.0,1.0,0.0,1711369881080,255000.0,,12337.0,3.289,0.0,0.0,0.0,0.0,1.0,0.0,12854.0,1289.084,0.0,3.283,3.288,3354936.0,62067,3.288,0.0,7.0,3.29,3.289,0.0,127.0,3.31,0.0,5420.2,21.464,37.2,,,0.0,48.0,0.0,99.0,45.0,3.29,0.0,,1.0,10.0,,12.182,0.0,41.0,74.0,0.0,,45.0,3.29,60000.0,,3.29,60.0,,0.0,3.29,4272433.0,0.0,22,1.0,0.0,3.289,,1.0,0.0,5.0,0.0,0.0,0.007,0.0,2.0,0.0,3.289,48.0,5.03,5.035,0.0,0.0,4469048.0,0.0,0.0
4,1711369876660,2024-03-25 18:01:16.660,95.8333,2.0,-0.307,52.608,0.0,54.0,1.0,0.0,0.0,0.0,0.0,0.0,0.0,0.0,0.0,1.0,0.0,0.0,0.0,0.0,0.0,0.0,0.0,0.0,0.0,0.0,5.2,0.0,0.0,0.0,0.0,1235288.0,2.0,3.288,61.0,0.0,0.0,47.0,47.0,0.0,0.0,3.288,16.0,0.0,0.0,20.0,28,0.0,0.0,3.282,3.288,0.0,3.288,0.0,47.0,0.0,47.0,0.0,3.289,62.0,0.0,0.0,1.0,0.0,0.0,256.0,,46.0,0.0,0.0,0.0,0.0,0.0,3.289,5718322.0,47.0,0.0,0.0,1.0,0.0,1711369876660,255000.0,,12337.0,3.288,0.0,0.0,0.0,0.0,1.0,0.0,12854.0,1289.084,0.0,3.282,3.287,3354936.0,60541,3.287,14.0,7.0,3.29,3.288,0.0,127.0,3.311,0.0,5420.2,21.464,37.2,,1.0,0.0,48.0,0.0,99.0,45.0,3.29,0.0,45.0,0.0,13.0,,12.178,0.0,41.0,74.0,0.0,0.0,45.0,3.29,60000.0,1800.0,3.289,61.0,1.0,0.0,3.289,4272433.0,0.0,23,1.0,0.0,3.288,0.0,1.0,0.0,5.0,0.0,0.0,0.008,0.0,2.0,0.0,3.288,48.0,5.043,5.042,0.0,0.0,4469048.0,0.0,0.0
4,1711369872180,2024-03-25 18:01:12.180,70.8333,,0.153,52.605,,54.0,0.0,0.0,0.0,0.0,0.0,0.0,0.0,0.0,0.0,1.0,,,,,,,,,,,,,,,0.0,1235288.0,2.0,3.288,61.0,,0.0,47.0,47.0,,0.0,3.287,16.0,,1.0,,17,0.0,0.0,3.282,3.288,0.0,3.288,0.0,47.0,0.0,47.0,,3.289,62.0,0.0,0.0,,1.0,0.0,,,46.0,,,,,0.0,3.288,5718322.0,47.0,,0.0,1.0,0.0,1711369872180,255000.0,,12337.0,3.288,0.0,0.0,0.0,0.0,1.0,0.0,12854.0,1289.084,,3.282,3.287,3354936.0,59052,3.287,0.0,7.0,3.29,3.287,0.0,,3.311,0.0,5420.2,21.464,37.2,,,0.0,48.0,0.0,99.0,45.0,3.29,,,,15.0,,12.182,,41.0,,0.0,,45.0,3.289,60000.0,,3.289,61.0,,0.0,3.289,4272433.0,0.0,17,1.0,,3.288,,1.0,,5.0,0.0,,0.008,0.0,2.0,0.0,3.288,48.0,5.045,5.042,0.0,,4469048.0,0.0,0.0
4,1711369867245,2024-03-25 18:01:07.245,91.6667,0.0,0.0,52.589,0.0,54.0,0.0,0.0,0.0,0.0,0.0,0.0,0.0,0.0,0.0,0.0,0.0,0.0,0.0,0.0,0.0,1.0,0.0,0.0,0.0,0.0,1.8,0.0,0.0,0.0,0.0,1235288.0,2.0,3.287,61.0,0.0,0.0,47.0,47.0,0.0,0.0,3.286,16.0,,1.0,,27,0.0,0.0,3.281,3.287,0.0,3.287,0.0,47.0,0.0,47.0,0.0,3.288,62.0,0.0,0.0,1.0,0.0,0.0,273.0,,45.0,,2.0,0.0,,0.0,3.287,5718322.0,47.0,0.0,0.0,1.0,0.0,1711369867245,255000.0,,12337.0,3.287,0.0,0.0,0.0,0.0,1.0,0.0,12854.0,1289.084,0.0,3.281,3.286,3354936.0,57846,3.286,0.0,7.0,3.288,3.287,0.0,131.0,3.311,0.0,5420.2,21.464,37.2,,,0.0,48.0,0.0,99.0,45.0,3.288,0.0,,1.0,6.0,,12.182,0.0,41.0,77.0,0.0,,45.0,3.288,60000.0,,3.288,61.0,,0.0,3.288,4272433.0,0.0,22,1.0,0.0,3.287,,1.0,0.0,1.0,0.0,0.0,0.007,0.0,2.0,0.0,3.287,48.0,5.035,5.04,0.0,0.0,4469048.0,0.0,0.0
4,1711369862980,2024-03-25 18:01:02.980,95.8333,0.0,-0.461,52.568,0.0,54.0,1.0,0.0,0.0,0.0,0.0,0.0,0.0,0.0,0.0,1.0,0.0,0.0,0.0,0.0,0.0,1.0,0.0,0.0,0.0,0.0,5.2,0.0,0.0,0.0,0.0,1235288.0,2.0,3.285,61.0,0.0,0.0,47.0,47.0,0.0,0.0,3.285,16.0,1.0,0.0,20.0,28,0.0,0.0,3.28,3.286,0.0,3.285,0.0,47.0,0.0,47.0,0.0,3.286,62.0,0.0,0.0,1.0,0.0,0.0,273.0,,46.0,0.0,2.0,0.0,0.0,0.0,3.286,5718322.0,47.0,0.0,0.0,1.0,0.0,1711369862980,255000.0,,12337.0,3.286,0.0,0.0,0.0,0.0,1.0,0.0,12854.0,1289.084,0.0,3.28,3.285,3354936.0,56368,3.285,0.0,7.0,3.287,3.285,0.0,133.0,3.312,0.0,5420.2,21.464,37.2,,2.0,0.0,48.0,0.0,99.0,45.0,3.287,0.0,105.0,1.0,10.0,,12.173,0.0,41.0,77.0,0.0,0.0,45.0,3.287,60000.0,2880.0,3.287,61.0,1.0,0.0,3.287,4272433.0,0.0,23,1.0,0.0,3.285,0.0,1.0,0.0,5.0,0.0,0.0,0.007,0.0,2.0,0.0,3.286,48.0,5.048,5.042,0.0,0.0,4469048.0,0.0,0.0
4,1711369858660,2024-03-25 18:00:58.660,91.6667,0.0,-0.461,52.552,0.0,54.0,1.0,0.0,0.0,0.0,0.0,0.0,0.0,0.0,0.0,1.0,0.0,0.0,0.0,0.0,0.0,1.0,0.0,0.0,0.0,0.0,5.2,0.0,0.0,0.0,0.0,1235288.0,2.0,3.284,61.0,0.0,0.0,47.0,47.0,0.0,0.0,3.284,16.0,,0.0,,32,0.0,0.0,3.278,3.285,0.0,3.284,0.0,47.0,0.0,47.0,0.0,3.285,62.0,0.0,0.0,1.0,0.0,0.0,273.0,,45.0,,2.0,0.0,,0.0,3.285,5718322.0,47.0,0.0,0.0,1.0,0.0,1711369858660,255000.0,,12337.0,3.285,0.0,0.0,0.0,0.0,1.0,0.0,12854.0,1289.084,0.0,3.278,3.284,3354936.0,54878,3.284,0.0,7.0,3.286,3.284,0.0,135.0,3.31,0.0,5420.2,21.464,37.2,,,0.0,48.0,0.0,99.0,45.0,3.286,0.0,,1.0,10.0,,12.178,0.0,41.0,77.0,0.0,,45.0,3.286,60000.0,,3.286,62.0,,0.0,3.286,4272433.0,0.0,22,1.0,0.0,3.285,,1.0,0.0,1.0,0.0,0.0,0.008,0.0,2.0,0.0,3.285,48.0,5.043,5.04,0.0,0.0,4469048.0,0.0,0.0
4,1711369854330,2024-03-25 18:00:54.330,91.6667,0.0,-0.379,52.533,0.0,54.0,1.0,0.0,0.0,0.0,0.0,0.0,0.0,0.0,0.0,1.0,0.0,0.0,0.0,0.0,0.0,1.0,0.0,0.0,0.0,0.0,5.2,0.0,0.0,0.0,0.0,1235288.0,2.0,3.283,61.0,0.0,0.0,47.0,47.0,0.0,0.0,3.283,16.0,,0.0,,27,0.0,0.0,3.278,3.284,0.0,3.283,0.0,47.0,0.0,47.0,0.0,3.284,62.0,0.0,0.0,1.0,0.0,0.0,273.0,,45.0,,2.0,0.0,,0.0,3.284,5718322.0,47.0,0.0,0.0,1.0,0.0,1711369854330,255000.0,,12337.0,3.283,0.0,0.0,0.0,0.0,1.0,0.0,12854.0,1289.084,0.0,3.278,3.283,3354936.0,53382,3.282,0.0,7.0,3.285,3.283,0.0,137.0,3.31,0.0,5420.2,21.464,37.2,,,0.0,48.0,0.0,99.0,45.0,3.285,0.0,,1.0,10.0,,12.173,0.0,41.0,77.0,0.0,,45.0,3.285,60000.0,,3.284,61.0,,0.0,3.285,4272433.0,0.0,22,1.0,0.0,3.283,,1.0,0.0,1.0,0.0,0.0,0.007,0.0,2.0,0.0,3.284,48.0,5.048,5.042,0.0,0.0,4469048.0,0.0,0.0
4,1711369849981,2024-03-25 18:00:49.981,95.8333,0.0,-0.461,52.512,0.0,54.0,1.0,0.0,0.0,0.0,0.0,0.0,0.0,0.0,0.0,1.0,0.0,0.0,0.0,0.0,0.0,1.0,0.0,0.0,0.0,0.0,5.2,0.0,0.0,0.0,0.0,1235288.0,2.0,3.282,61.0,0.0,0.0,47.0,47.0,0.0,0.0,3.282,16.0,1.0,0.0,20.0,28,0.0,0.0,3.276,3.282,0.0,3.282,0.0,47.0,0.0,47.0,0.0,3.283,62.0,0.0,0.0,1.0,0.0,0.0,273.0,,45.0,0.0,2.0,0.0,0.0,0.0,3.283,5718322.0,47.0,0.0,0.0,1.0,0.0,1711369849981,255000.0,,12337.0,3.282,0.0,0.0,0.0,0.0,1.0,0.0,12854.0,1289.084,0.0,3.276,3.281,3354936.0,51859,3.281,0.0,7.0,3.284,3.281,0.0,138.0,3.29,0.0,5420.2,21.464,37.2,,2.0,0.0,48.0,0.0,99.0,45.0,3.284,0.0,105.0,1.0,13.0,,12.186,0.0,41.0,78.0,0.0,0.0,45.0,3.284,60000.0,2880.0,3.283,62.0,1.0,0.0,3.283,4272433.0,0.0,23,1.0,0.0,3.283,0.0,1.0,0.0,1.0,0.0,0.0,0.008,0.0,2.0,0.0,3.282,48.0,5.025,5.005,0.0,0.0,4469048.0,0.0,0.0
4,1711369845735,2024-03-25 18:00:45.735,29.1667,0.0,,,0.0,,,,,,,,,,,,0.0,0.0,0.0,0.0,0.0,1.0,0.0,0.0,0.0,0.0,5.2,0.0,0.0,0.0,,,,3.28,,0.0,,,,0.0,,,,1.0,,20.0,7,,,,3.281,,,,,,,0.0,,,,,1.0,,,273.0,,,0.0,2.0,0.0,0.0,,,,,0.0,,,,1711369845735,,,,,,,,,,,,,0.0,,,,50370,3.28,,,,,,140.0,,,,,,,2.0,,,,,,,0.0,105.0,1.0,,,,0.0,,78.0,,0.0,,,,2880.0,,,1.0,,,,,7,,0.0,3.281,0.0,,0.0,,,0.0,,,,,,,,,,0.0,,,
4,1711369841420,2024-03-25 18:00:41.420,91.6667,0.0,-0.379,52.459,0.0,54.0,1.0,0.0,0.0,0.0,0.0,0.0,0.0,0.0,0.0,1.0,0.0,0.0,0.0,0.0,0.0,1.0,0.0,0.0,0.0,0.0,5.2,0.0,0.0,0.0,0.0,1235288.0,2.0,3.278,61.0,0.0,0.0,47.0,47.0,0.0,0.0,3.278,16.0,,0.0,,27,0.0,0.0,3.273,3.279,0.0,3.279,0.0,47.0,0.0,47.0,0.0,3.28,62.0,0.0,0.0,1.0,0.0,0.0,273.0,,45.0,,2.0,0.0,,0.0,3.28,5718322.0,47.0,0.0,0.0,1.0,0.0,1711369841420,255000.0,,12337.0,3.278,0.0,0.0,0.0,0.0,1.0,0.0,12854.0,1289.084,0.0,3.273,3.278,3354936.0,48905,3.278,0.0,7.0,3.28,3.278,0.0,142.0,3.288,0.0,5420.2,21.464,37.2,,,0.0,48.0,0.0,99.0,45.0,3.28,0.0,,1.0,6.0,,12.182,0.0,41.0,78.0,0.0,,45.0,3.28,60000.0,,3.28,63.0,,0.0,3.28,4272433.0,0.0,22,1.0,0.0,3.279,,1.0,0.0,1.0,0.0,0.0,0.007,0.0,2.0,0.0,3.279,48.0,5.025,5.0,0.0,0.0,4469048.0,0.0,0.0
4,1711369835983,2024-03-25 18:00:35.983,95.8333,1.0,-0.379,52.409,0.0,54.0,1.0,0.0,0.0,0.0,0.0,0.0,0.0,0.0,0.0,1.0,0.0,0.0,0.0,0.0,0.0,1.0,0.0,0.0,0.0,0.0,5.2,0.0,0.0,0.0,0.0,1235288.0,2.0,3.275,61.0,0.0,0.0,47.0,47.0,0.0,0.0,3.275,16.0,1.0,0.0,20.0,28,0.0,0.0,3.269,3.276,0.0,3.275,0.0,47.0,0.0,47.0,0.0,3.277,62.0,0.0,0.0,1.0,0.0,0.0,273.0,,45.0,0.0,2.0,0.0,0.0,0.0,3.276,5718322.0,47.0,0.0,0.0,1.0,0.0,1711369835983,255000.0,,12337.0,3.275,0.0,0.0,0.0,0.0,1.0,0.0,12854.0,1289.084,0.0,3.269,3.275,3354936.0,47002,3.275,0.0,7.0,3.278,3.275,0.0,145.0,3.312,0.0,5420.2,21.464,37.2,,2.0,0.0,48.0,0.0,99.0,45.0,3.278,0.0,105.0,1.0,15.0,,12.271,0.0,41.0,78.0,0.0,0.0,45.0,3.277,60000.0,2880.0,3.277,63.0,1.0,0.0,3.277,4272433.0,0.0,23,1.0,0.0,3.276,0.0,1.0,0.0,1.0,0.0,0.0,0.009,0.0,2.0,0.0,3.276,48.0,5.055,5.042,0.0,0.0,4469048.0,0.0,0.0
4,1711369831740,2024-03-25 18:00:31.740,95.8333,0.0,-0.379,52.365,0.0,54.0,1.0,0.0,0.0,0.0,0.0,0.0,0.0,0.0,0.0,1.0,0.0,0.0,0.0,0.0,0.0,1.0,0.0,0.0,0.0,0.0,5.2,0.0,0.0,0.0,0.0,1235273.0,2.0,3.273,61.0,0.0,0.0,47.0,47.0,0.0,0.0,3.272,16.0,1.0,0.0,20.0,28,0.0,0.0,3.267,3.273,0.0,3.272,0.0,47.0,0.0,47.0,0.0,3.274,62.0,0.0,0.0,1.0,0.0,0.0,273.0,,45.0,0.0,2.0,0.0,0.0,0.0,3.274,5718322.0,47.0,0.0,0.0,1.0,0.0,1711369831740,255000.0,,12337.0,3.273,0.0,0.0,0.0,0.0,1.0,0.0,12854.0,1289.084,0.0,3.267,3.272,3354936.0,45540,3.272,0.0,7.0,3.275,3.272,0.0,147.0,3.31,0.0,5423.99,21.479,37.2,,2.0,0.0,48.0,0.0,99.0,45.0,3.275,0.0,105.0,1.0,15.0,,12.263,0.0,41.0,78.0,0.0,0.0,45.0,3.274,60000.0,2880.0,3.274,64.0,1.0,0.0,3.274,4272433.0,0.0,23,1.0,0.0,3.273,0.0,1.0,0.0,1.0,0.0,0.0,0.008,0.0,2.0,0.0,3.273,48.0,5.053,5.04,0.0,0.0,4469048.0,0.0,0.0
4,1711369827352,2024-03-25 18:00:27.352,91.6667,1.0,-0.307,52.304,0.0,54.0,1.0,0.0,0.0,0.0,0.0,0.0,0.0,0.0,0.0,1.0,0.0,0.0,0.0,0.0,0.0,1.0,0.0,0.0,0.0,0.0,5.2,0.0,0.0,0.0,0.0,1235273.0,2.0,3.269,61.0,0.0,0.0,47.0,47.0,0.0,0.0,3.269,16.0,,0.0,,27,0.0,0.0,3.262,3.269,0.0,3.269,0.0,47.0,0.0,47.0,0.0,3.271,62.0,0.0,0.0,1.0,0.0,0.0,273.0,,45.0,,2.0,0.0,,0.0,3.27,5718322.0,47.0,0.0,0.0,1.0,0.0,1711369827352,255000.0,,12337.0,3.269,0.0,0.0,0.0,0.0,1.0,0.0,12854.0,1289.084,0.0,3.262,3.268,3354936.0,44014,3.268,0.0,7.0,3.271,3.268,0.0,149.0,3.311,0.0,5423.99,21.479,37.2,,,0.0,48.0,0.0,99.0,45.0,3.271,0.0,,1.0,6.0,,12.19,0.0,41.0,78.0,0.0,,45.0,3.271,60000.0,,3.27,65.0,,0.0,3.27,4272433.0,0.0,22,1.0,0.0,3.27,,1.0,0.0,1.0,0.0,0.0,0.009,0.0,2.0,0.0,3.269,48.0,5.055,5.042,0.0,0.0,4469048.0,0.0,0.0
4,1711369823093,2024-03-25 18:00:23.093,95.8333,309.0,-0.307,52.229,0.0,54.0,1.0,0.0,0.0,0.0,0.0,0.0,0.0,0.0,0.0,1.0,0.0,0.0,0.0,0.0,0.0,1.0,0.0,0.0,0.0,0.0,5.2,0.0,0.0,0.0,0.0,1235273.0,2.0,3.264,61.0,0.0,0.0,47.0,47.0,0.0,0.0,3.264,16.0,1.0,0.0,20.0,28,0.0,0.0,3.258,3.265,0.0,3.264,0.0,47.0,0.0,47.0,0.0,3.266,62.0,0.0,0.0,1.0,0.0,0.0,273.0,,45.0,0.0,2.0,0.0,0.0,0.0,3.265,5718322.0,47.0,0.0,0.0,1.0,0.0,1711369823093,255000.0,,12337.0,3.264,0.0,0.0,0.0,0.0,1.0,0.0,12854.0,1289.084,0.0,3.258,3.263,3354936.0,42525,3.264,0.0,7.0,3.267,3.263,0.0,151.0,3.311,0.0,5423.99,21.479,37.2,,2.0,0.0,48.0,0.0,99.0,45.0,3.267,0.0,105.0,1.0,15.0,,12.186,0.0,41.0,78.0,0.0,0.0,45.0,3.266,60000.0,2880.0,3.266,66.0,1.0,0.0,3.265,4272433.0,0.0,23,1.0,0.0,3.265,0.0,1.0,0.0,1.0,0.0,0.0,0.009,0.0,2.0,0.0,3.264,48.0,5.038,5.042,0.0,0.0,4469048.0,0.0,0.0
4,1711369818780,2024-03-25 18:00:18.780,25.0,723.0,,,0.0,,,,,,,,,,,,0.0,0.0,0.0,0.0,0.0,1.0,0.0,0.0,0.0,0.0,5.2,0.0,0.0,0.0,,,,,,0.0,,,,0.0,,,,1.0,,20.0,11,,,,,,,,,,,0.0,,,,,1.0,,,273.0,,,0.0,2.0,0.0,0.0,,,,,0.0,,,,1711369818780,,,,,,,,,,,,,0.0,,,,41034,,,,,,,151.0,,,,,,,2.0,,,,,,,0.0,105.0,1.0,,,,0.0,,78.0,,0.0,,,,2880.0,,,1.0,,,,,6,,0.0,,0.0,,0.0,,,0.0,,,,,,,,,,0.0,,,
4,1711369814500,2024-03-25 18:00:14.500,95.8333,691.0,-0.461,51.97,0.0,54.0,1.0,0.0,0.0,0.0,0.0,0.0,0.0,0.0,0.0,1.0,0.0,0.0,0.0,0.0,0.0,1.0,0.0,0.0,0.0,0.0,5.2,0.0,0.0,0.0,0.0,1235273.0,2.0,3.248,60.0,0.0,0.0,47.0,47.0,0.0,0.0,3.248,16.0,1.0,0.0,20.0,23,0.0,0.0,3.241,3.249,0.0,3.248,0.0,47.0,0.0,47.0,0.0,3.25,62.0,0.0,0.0,1.0,0.0,0.0,273.0,,45.0,0.0,2.0,0.0,0.0,0.0,3.25,5718322.0,47.0,0.0,0.0,1.0,0.0,1711369814500,255000.0,,12337.0,3.247,0.0,0.0,0.0,0.0,4.0,0.0,12854.0,1289.084,0.0,3.241,3.247,3354936.0,39561,3.247,0.0,7.0,3.251,3.247,0.0,151.0,3.312,0.0,5423.99,21.479,37.2,,2.0,0.0,48.0,0.0,99.0,45.0,3.251,0.0,105.0,1.0,15.0,,12.178,0.0,41.0,78.0,0.0,0.0,45.0,3.25,60000.0,2880.0,3.249,68.0,1.0,0.0,3.249,4272433.0,0.0,23,1.0,0.0,3.25,0.0,1.0,0.0,1.0,0.0,0.0,0.01,0.0,2.0,0.0,3.247,48.0,5.05,5.044,0.0,0.0,4469048.0,0.0,0.0
4,1711369810250,2024-03-25 18:00:10.250,95.8333,1237.0,-104.076,49.738,94.0,54.0,1.0,0.0,0.0,0.0,0.0,0.0,0.0,0.0,0.0,1.0,0.0,0.0,0.0,0.0,0.0,1.0,0.0,0.0,0.0,0.0,4.7,105.1,199.5,0.0,0.0,1235273.0,2.0,3.112,61.0,0.0,0.0,47.0,46.0,0.0,0.0,3.108,16.0,1.0,0.0,20.0,28,0.0,0.0,3.075,3.112,0.0,3.078,0.0,47.0,0.0,47.0,0.0,3.119,61.0,0.0,0.0,1.0,0.0,0.0,273.0,,45.0,0.0,2.0,0.0,0.0,0.0,3.115,5718322.0,47.0,0.0,0.0,1.0,0.0,1711369810250,255000.0,,12337.0,3.114,0.0,0.0,0.0,0.0,4.0,0.0,12854.0,1289.084,0.0,3.075,3.109,3354936.0,38101,3.094,0.0,7.0,3.118,3.128,0.0,150.0,3.309,0.0,5423.99,21.479,37.2,,2.0,0.0,48.0,0.0,99.0,45.0,3.128,0.0,105.0,1.0,9.0,,12.182,0.0,41.0,78.0,0.0,0.0,45.0,3.115,60000.0,2880.0,3.115,69.0,1.0,0.0,3.112,4272433.0,0.0,23,1.0,0.0,3.113,0.0,1.0,0.0,1.0,0.0,0.0,0.053,0.0,2.0,0.0,3.109,48.0,5.03,5.044,0.0,0.0,4469048.0,0.0,0.0
4,1711369805987,2024-03-25 18:00:05.987,91.6667,1290.0,-102.537,49.774,96.0,54.0,1.0,0.0,0.0,0.0,0.0,0.0,0.0,0.0,0.0,1.0,0.0,0.0,0.0,0.0,0.0,0.0,0.0,0.0,0.0,0.0,4.8,105.0,197.1,1.6,0.0,1235158.0,2.0,3.112,60.0,0.0,0.0,47.0,46.0,0.0,0.0,3.11,8.0,,0.0,,22,0.0,0.0,3.076,3.116,0.0,3.076,0.0,47.0,0.0,47.0,0.0,3.122,61.0,0.0,0.0,1.0,0.0,0.0,256.0,,45.0,,2.0,0.0,,0.0,3.117,5718322.0,47.0,0.0,0.0,1.0,0.0,1711369805987,255000.0,,12337.0,3.115,0.0,0.0,0.0,0.0,4.0,0.0,12854.0,1289.084,0.0,3.08,3.113,3354936.0,36606,3.096,0.0,7.0,3.122,3.129,0.0,146.0,3.31,0.0,5453.03,21.594,37.2,,,0.0,48.0,0.0,99.0,45.0,3.129,0.0,,1.0,9.0,,12.178,0.0,41.0,77.0,0.0,,45.0,3.118,60000.0,,3.115,69.0,,0.0,3.116,4272433.0,0.0,22,1.0,0.0,3.118,,1.0,0.0,1.0,0.0,0.0,0.053,0.0,2.0,0.0,3.109,48.0,5.035,5.04,0.0,0.0,4469048.0,0.0,0.0
4,1711369801720,2024-03-25 18:00:01.720,20.8333,1223.0,,,100.0,,,,,,,,,,,,0.0,0.0,0.0,0.0,0.0,0.0,0.0,0.0,0.0,0.0,4.8,104.9,205.3,1.5,,,,,,0.0,,,,0.0,,,,,,,10,,,,,,,,,,,0.0,,,,,1.0,,,256.0,,,,2.0,0.0,,,,,,0.0,,,,1711369801720,,,,,,,,,,,,,0.0,,,,35120,,,,,,,143.0,,,,,,,,,,,,,,0.0,,1.0,,,,0.0,,76.0,,,,,,,,,,,,,,5,,0.0,,,,0.0,,,0.0,,,,,,,,,,0.0,,,
4,1711369797400,2024-03-25 17:59:57.400,20.8333,1298.0,,,100.0,,,,,,,,,,,,0.0,0.0,0.0,0.0,0.0,0.0,0.0,0.0,0.0,0.0,4.8,104.7,195.7,1.6,,,,,,0.0,,,,0.0,,,,,,,5,,,,,,,,,,,0.0,,,,,1.0,,,256.0,,,,2.0,0.0,,,,,,0.0,,,,1711369797400,,,,,,,,,,,,,0.0,,,,33629,,,,,,,139.0,,,,,,,,,,,,,,0.0,,1.0,,,,0.0,,74.0,,,,,,,,,,,,,,5,,0.0,,,,0.0,,,0.0,,,,,,,,,,0.0,,,
4,1711369793140,2024-03-25 17:59:53.140,91.6667,1314.0,-103.532,49.946,100.0,55.0,1.0,0.0,0.0,0.0,0.0,0.0,0.0,0.0,0.0,1.0,0.0,0.0,0.0,0.0,0.0,0.0,0.0,0.0,0.0,0.0,4.8,104.4,196.5,1.6,0.0,1234783.0,2.0,3.124,60.0,0.0,0.0,47.0,46.0,0.0,0.0,3.121,16.0,,0.0,,27,0.0,0.0,3.088,3.128,0.0,3.093,0.0,47.0,0.0,47.0,0.0,3.128,61.0,0.0,0.0,1.0,0.0,0.0,256.0,,45.0,,2.0,0.0,,0.0,3.125,5718322.0,47.0,0.0,0.0,1.0,0.0,1711369793140,255000.0,,12337.0,3.126,0.0,0.0,0.0,0.0,4.0,0.0,12854.0,1289.084,0.0,3.088,3.124,3354936.0,32164,3.11,0.0,7.0,3.131,3.139,0.0,135.0,3.311,0.0,5547.72,21.969,37.2,,,0.0,48.0,0.0,99.0,45.0,3.139,0.0,,1.0,9.0,,12.182,0.0,41.0,73.0,0.0,,45.0,3.127,60000.0,,3.129,66.0,,0.0,3.126,4272433.0,0.0,22,1.0,0.0,3.126,,1.0,0.0,1.0,0.0,0.0,0.051,0.0,2.0,0.0,3.122,48.0,5.043,5.042,0.0,0.0,4469048.0,0.0,0.0
4,1711369788780,2024-03-25 17:59:48.780,95.8333,1123.0,-105.144,50.019,100.0,55.0,1.0,0.0,0.0,0.0,0.0,0.0,0.0,0.0,0.0,1.0,0.0,0.0,0.0,0.0,0.0,0.0,0.0,0.0,0.0,0.0,4.8,105.3,217.4,1.4,0.0,1234667.0,2.0,3.128,59.0,0.0,0.0,47.0,46.0,0.0,0.0,3.126,8.0,1.0,0.0,20.0,28,0.0,0.0,3.095,3.13,0.0,3.095,0.0,47.0,0.0,47.0,0.0,3.133,61.0,0.0,0.0,1.0,0.0,0.0,256.0,,45.0,0.0,2.0,0.0,0.0,0.0,3.131,5718322.0,47.0,0.0,0.0,1.0,0.0,1711369788780,255000.0,,12337.0,3.132,0.0,0.0,0.0,0.0,4.0,0.0,12854.0,1289.084,0.0,3.095,3.128,3354936.0,30644,3.112,0.0,7.0,3.136,3.143,0.0,131.0,3.31,0.0,5577.02,22.085,37.2,,2.0,0.0,48.0,0.0,99.0,45.0,3.143,0.0,105.0,1.0,9.0,,12.182,0.0,41.0,72.0,0.0,0.0,45.0,3.134,60000.0,2880.0,3.131,64.0,1.0,0.0,3.133,4272433.0,0.0,23,1.0,0.0,3.133,0.0,1.0,0.0,1.0,0.0,0.0,0.048,0.0,2.0,0.0,3.125,48.0,5.04,5.04,0.0,0.0,4469048.0,0.0,0.0
4,1711369784420,2024-03-25 17:59:44.420,91.6667,1128.0,-103.378,50.165,100.0,56.0,1.0,0.0,0.0,0.0,0.0,0.0,0.0,0.0,0.0,1.0,0.0,0.0,0.0,0.0,0.0,0.0,0.0,0.0,0.0,0.0,4.8,104.9,218.3,1.4,0.0,1234522.0,2.0,3.137,59.0,0.0,0.0,47.0,46.0,0.0,0.0,3.135,8.0,,0.0,,27,0.0,0.0,3.102,3.14,0.0,3.102,0.0,47.0,0.0,47.0,0.0,3.14,61.0,0.0,0.0,1.0,0.0,0.0,256.0,,45.0,,2.0,0.0,,0.0,3.14,5718322.0,47.0,0.0,0.0,1.0,0.0,1711369784420,255000.0,,12337.0,3.141,0.0,0.0,0.0,0.0,4.0,0.0,12854.0,1289.084,0.0,3.108,3.139,3354936.0,29147,3.121,0.0,7.0,3.142,3.156,0.0,130.0,3.312,0.0,5613.63,22.23,37.2,,,0.0,48.0,0.0,99.0,45.0,3.156,0.0,,1.0,9.0,,12.203,0.0,41.0,70.0,0.0,,45.0,3.142,60000.0,,3.142,62.0,,0.0,3.14,4272433.0,0.0,22,1.0,0.0,3.139,,1.0,0.0,1.0,0.0,0.0,0.054,0.0,2.0,0.0,3.136,48.0,5.05,5.04,0.0,0.0,4469048.0,0.0,0.0
4,1711369780180,2024-03-25 17:59:40.180,66.6667,1239.0,,,47.0,56.0,1.0,0.0,0.0,0.0,0.0,0.0,0.0,0.0,0.0,1.0,0.0,0.0,0.0,0.0,0.0,0.0,0.0,0.0,0.0,0.0,5.0,58.3,139.1,1.3,0.0,1234429.0,2.0,,60.0,0.0,0.0,47.0,46.0,0.0,0.0,,,,0.0,,21,0.0,0.0,,,0.0,,0.0,47.0,0.0,47.0,0.0,,61.0,0.0,0.0,1.0,0.0,0.0,256.0,,45.0,,2.0,0.0,,0.0,,5718322.0,47.0,0.0,0.0,1.0,0.0,1711369780180,255000.0,,12337.0,,0.0,0.0,0.0,0.0,4.0,0.0,12854.0,1289.084,0.0,,,3354936.0,27658,,0.0,7.0,,,0.0,130.0,3.285,0.0,5637.12,22.323,37.2,,,0.0,48.0,0.0,99.0,45.0,,0.0,,1.0,,,12.186,0.0,41.0,70.0,0.0,,45.0,,60000.0,,,61.0,,0.0,,4272433.0,0.0,16,1.0,0.0,,,1.0,0.0,1.0,0.0,0.0,0.027,0.0,2.0,0.0,,48.0,5.023,5.002,0.0,0.0,4469048.0,0.0,0.0
4,1711369775780,2024-03-25 17:59:35.780,95.8333,1218.0,0.923,52.462,0.0,56.0,1.0,0.0,0.0,0.0,0.0,0.0,0.0,0.0,0.0,1.0,0.0,0.0,0.0,0.0,0.0,0.0,0.0,0.0,0.0,0.0,5.2,6551.9,12.0,0.9,0.0,1234373.0,2.0,3.279,59.0,0.0,0.0,47.0,46.0,0.0,0.0,3.278,16.0,1.0,0.0,20.0,28,0.0,0.0,3.273,3.279,0.0,3.279,0.0,47.0,0.0,47.0,0.0,3.28,61.0,0.0,0.0,1.0,0.0,0.0,256.0,,45.0,0.0,2.0,0.0,0.0,0.0,3.279,5718322.0,47.0,0.0,0.0,1.0,0.0,1711369775780,255000.0,,12337.0,3.279,0.0,0.0,0.0,0.0,4.0,0.0,12854.0,1289.084,0.0,3.273,3.278,3354936.0,26133,3.278,0.0,7.0,3.281,3.278,0.0,131.0,3.311,0.0,5651.26,22.379,37.2,,2.0,0.0,48.0,0.0,99.0,45.0,3.281,0.0,105.0,1.0,13.0,,12.182,0.0,41.0,70.0,0.0,0.0,45.0,3.281,60000.0,2880.0,3.28,61.0,1.0,0.0,3.28,4272433.0,0.0,23,1.0,0.0,3.279,0.0,1.0,0.0,1.0,0.0,0.0,0.008,0.0,2.0,0.0,3.279,48.0,5.043,5.042,0.0,0.0,4469048.0,0.0,0.0
4,1711369771534,2024-03-25 17:59:31.534,95.8333,1148.0,-0.071,52.399,0.0,56.0,1.0,0.0,0.0,0.0,0.0,0.0,0.0,0.0,0.0,1.0,0.0,0.0,0.0,0.0,0.0,0.0,0.0,0.0,0.0,0.0,5.2,6552.6,11.6,0.9,0.0,1234370.0,2.0,3.275,60.0,0.0,0.0,47.0,46.0,0.0,0.0,3.274,16.0,1.0,0.0,20.0,28,0.0,0.0,3.269,3.275,0.0,3.274,0.0,47.0,0.0,47.0,0.0,3.276,61.0,0.0,0.0,1.0,0.0,0.0,256.0,,45.0,0.0,2.0,0.0,0.0,0.0,3.276,5718322.0,47.0,0.0,0.0,1.0,0.0,1711369771534,255000.0,,12337.0,3.275,0.0,0.0,0.0,0.0,4.0,0.0,12854.0,1289.084,0.0,3.269,3.274,3354936.0,24671,3.274,0.0,7.0,3.277,3.274,0.0,133.0,3.308,0.0,5652.02,22.382,37.2,,2.0,0.0,48.0,0.0,99.0,45.0,3.277,0.0,105.0,1.0,13.0,,12.182,0.0,41.0,70.0,0.0,0.0,45.0,3.277,60000.0,2880.0,3.277,62.0,1.0,0.0,3.276,4272433.0,0.0,23,1.0,0.0,3.275,0.0,1.0,0.0,1.0,0.0,0.0,0.008,0.0,2.0,0.0,3.275,48.0,5.028,4.998,0.0,0.0,4469048.0,0.0,0.0
4,1711369767240,2024-03-25 17:59:27.240,91.6667,886.0,-9.597,52.221,10.0,56.0,1.0,0.0,0.0,0.0,0.0,0.0,0.0,0.0,0.0,1.0,0.0,0.0,0.0,0.0,0.0,0.0,0.0,0.0,0.0,0.0,5.2,7.8,15.1,0.8,0.0,1234361.0,2.0,3.264,59.0,0.0,0.0,47.0,46.0,0.0,0.0,3.263,16.0,,0.0,,27,0.0,0.0,3.256,3.265,0.0,3.261,0.0,46.0,0.0,47.0,0.0,3.266,61.0,0.0,0.0,1.0,0.0,0.0,256.0,,45.0,,2.0,0.0,,0.0,3.265,5718322.0,47.0,0.0,0.0,1.0,0.0,1711369767240,255000.0,,12337.0,3.264,0.0,0.0,0.0,0.0,4.0,0.0,12854.0,1289.084,0.0,3.256,3.263,3354936.0,23179,3.263,0.0,7.0,3.266,3.264,0.0,134.0,3.314,0.0,5654.29,22.391,37.2,,,0.0,48.0,0.0,99.0,45.0,3.266,0.0,,1.0,6.0,,12.275,0.0,41.0,70.0,0.0,,45.0,3.266,60000.0,,3.265,62.0,,0.0,3.265,4272433.0,0.0,22,1.0,0.0,3.265,,1.0,0.0,1.0,0.0,0.0,0.01,0.0,2.0,0.0,3.263,48.0,5.06,5.047,0.0,0.0,4469048.0,0.0,0.0
4,1711369762960,2024-03-25 17:59:22.960,91.6667,990.0,-0.841,52.288,0.0,56.0,1.0,0.0,0.0,0.0,0.0,0.0,0.0,0.0,0.0,1.0,0.0,0.0,0.0,0.0,0.0,0.0,0.0,0.0,0.0,0.0,5.2,6553.5,7.6,0.8,0.0,1234360.0,2.0,3.268,60.0,0.0,0.0,47.0,46.0,0.0,0.0,3.268,16.0,,0.0,,22,0.0,0.0,3.262,3.268,0.0,3.267,0.0,46.0,0.0,47.0,0.0,3.269,61.0,0.0,0.0,1.0,0.0,0.0,256.0,,45.0,,2.0,0.0,,0.0,3.269,5718322.0,47.0,0.0,0.0,1.0,0.0,1711369762960,255000.0,,12337.0,3.267,0.0,0.0,0.0,0.0,4.0,0.0,12854.0,1289.084,0.0,3.262,3.267,3354936.0,21685,3.267,0.0,7.0,3.271,3.267,0.0,136.0,3.306,0.0,5654.54,22.392,37.2,,,0.0,48.0,0.0,99.0,45.0,3.271,0.0,,1.0,15.0,,12.186,0.0,41.0,70.0,0.0,,45.0,3.27,60000.0,,3.27,63.0,,0.0,3.269,4272433.0,0.0,22,1.0,0.0,3.269,,1.0,0.0,1.0,0.0,0.0,0.009,0.0,2.0,0.0,3.268,48.0,5.028,5.002,0.0,0.0,4469048.0,0.0,0.0
4,1711369758660,2024-03-25 17:59:18.660,91.6667,986.0,-3.223,52.159,3.0,56.0,1.0,0.0,0.0,0.0,0.0,0.0,0.0,0.0,0.0,1.0,0.0,0.0,0.0,0.0,0.0,0.0,0.0,0.0,0.0,0.0,5.2,2.5,26.2,0.9,0.0,1234357.0,2.0,3.26,59.0,0.0,0.0,47.0,46.0,0.0,0.0,3.259,16.0,,0.0,,27,0.0,0.0,3.253,3.261,0.0,3.259,0.0,46.0,0.0,47.0,0.0,3.262,61.0,0.0,0.0,1.0,0.0,0.0,256.0,,45.0,,2.0,0.0,,0.0,3.261,5718322.0,47.0,0.0,0.0,1.0,0.0,1711369758660,255000.0,,12337.0,3.259,0.0,0.0,0.0,0.0,4.0,0.0,12854.0,1289.084,0.0,3.253,3.259,3354936.0,20194,3.259,0.0,4.0,3.262,3.259,0.0,136.0,3.309,0.0,5655.3,22.395,37.2,,,0.0,47.0,0.0,99.0,45.0,3.262,0.0,,1.0,6.0,,12.182,0.0,41.0,70.0,0.0,,45.0,3.262,63000.0,,3.261,64.0,,0.0,3.261,4272433.0,0.0,22,1.0,0.0,3.261,,1.0,0.0,1.0,0.0,0.0,0.009,0.0,2.0,0.0,3.26,47.0,5.038,5.04,0.0,0.0,4469048.0,0.0,0.0
4,1711369754360,2024-03-25 17:59:14.360,91.6667,666.0,-4.916,52.022,8.0,56.0,1.0,0.0,0.0,0.0,0.0,0.0,0.0,0.0,0.0,1.0,0.0,0.0,0.0,0.0,0.0,0.0,0.0,0.0,0.0,0.0,5.1,4.5,60.2,0.6,0.0,1234343.0,2.0,3.252,59.0,0.0,0.0,47.0,46.0,0.0,0.0,3.251,16.0,,0.0,,27,0.0,0.0,3.244,3.252,0.0,3.25,0.0,46.0,0.0,47.0,0.0,3.253,61.0,0.0,0.0,1.0,0.0,0.0,256.0,,45.0,,2.0,0.0,,0.0,3.253,5718322.0,47.0,0.0,0.0,1.0,0.0,1711369754360,255000.0,,12337.0,3.25,0.0,0.0,0.0,0.0,4.0,0.0,12854.0,1289.084,0.0,3.244,3.25,3354936.0,18703,3.25,0.0,4.0,3.255,3.251,0.0,136.0,3.31,0.0,5658.83,22.409,37.2,,,0.0,47.0,0.0,99.0,45.0,3.255,0.0,,1.0,15.0,,12.178,0.0,41.0,70.0,0.0,,45.0,3.254,63000.0,,3.253,64.0,,0.0,3.253,4272433.0,0.0,22,1.0,0.0,3.252,,1.0,0.0,1.0,0.0,0.0,0.011,0.0,2.0,0.0,3.25,47.0,5.048,5.042,0.0,0.0,4469048.0,0.0,0.0
4,1711369750060,2024-03-25 17:59:10.060,95.8333,774.0,-20.571,51.618,26.0,56.0,1.0,0.0,0.0,0.0,0.0,0.0,0.0,0.0,0.0,1.0,0.0,0.0,0.0,0.0,0.0,0.0,0.0,0.0,0.0,0.0,5.1,19.5,87.6,0.8,0.0,1234325.0,2.0,3.226,59.0,0.0,0.0,47.0,46.0,0.0,0.0,3.226,16.0,1.0,0.0,20.0,28,0.0,0.0,3.214,3.228,0.0,3.22,0.0,46.0,0.0,47.0,0.0,3.229,60.0,0.0,0.0,1.0,0.0,0.0,256.0,,45.0,0.0,2.0,0.0,0.0,0.0,3.228,5718322.0,47.0,0.0,0.0,1.0,0.0,1711369750060,255000.0,,12337.0,3.226,0.0,0.0,0.0,0.0,4.0,0.0,12854.0,1289.084,0.0,3.214,3.225,3354936.0,17209,3.222,0.0,4.0,3.23,3.229,0.0,136.0,3.312,0.0,5663.38,22.427,37.2,,2.0,0.0,47.0,0.0,99.0,45.0,3.23,0.0,105.0,1.0,13.0,,12.178,0.0,41.0,70.0,0.0,0.0,45.0,3.23,63000.0,2880.0,3.229,65.0,1.0,0.0,3.228,4272433.0,0.0,23,1.0,0.0,3.228,0.0,1.0,0.0,1.0,0.0,0.0,0.016,0.0,2.0,0.0,3.226,47.0,5.048,5.042,0.0,0.0,4469048.0,0.0,0.0
4,1711369745766,2024-03-25 17:59:05.766,95.8333,907.0,-37.22,51.164,39.0,56.0,1.0,0.0,0.0,0.0,0.0,0.0,0.0,0.0,0.0,1.0,0.0,0.0,0.0,0.0,0.0,0.0,0.0,0.0,0.0,0.0,5.0,35.8,113.8,1.0,0.0,1234290.0,2.0,3.199,59.0,0.0,0.0,47.0,46.0,0.0,0.0,3.197,16.0,1.0,0.0,20.0,28,0.0,0.0,3.182,3.202,0.0,3.186,0.0,46.0,0.0,47.0,0.0,3.202,60.0,0.0,0.0,1.0,0.0,0.0,256.0,,45.0,0.0,2.0,0.0,0.0,0.0,3.201,5718322.0,47.0,0.0,0.0,1.0,0.0,1711369745766,255000.0,,12337.0,3.198,0.0,0.0,0.0,0.0,4.0,0.0,12854.0,1289.084,0.0,3.182,3.196,3354936.0,15718,3.193,0.0,4.0,3.202,3.203,0.0,135.0,3.31,0.0,5672.22,22.462,37.2,,2.0,0.0,47.0,0.0,99.0,45.0,3.203,0.0,105.0,1.0,9.0,,12.173,0.0,41.0,70.0,0.0,0.0,45.0,3.202,63000.0,2880.0,3.201,66.0,1.0,0.0,3.201,4272433.0,0.0,23,1.0,0.0,3.2,0.0,1.0,0.0,1.0,0.0,0.0,0.021,0.0,2.0,0.0,3.196,47.0,5.048,5.037,0.0,0.0,4469048.0,0.0,0.0
4,1711369741486,2024-03-25 17:59:01.486,33.3333,1328.0,,,86.0,,,,,,,,,,,,0.0,0.0,0.0,0.0,0.0,0.0,0.0,0.0,0.0,0.0,4.8,103.5,191.5,1.6,,,,,,0.0,,,,0.0,,,,1.0,,20.0,8,,,,,,,,,,,0.0,,,,,1.0,,,256.0,,,0.0,2.0,0.0,0.0,,,,,0.0,,,,1711369741486,,,,,,,,,,,12854.0,,0.0,,,3354936.0,14227,,,,,,,132.0,,,5692.92,,37.2,,2.0,,,,,,,0.0,105.0,1.0,,,,0.0,,69.0,,0.0,,,,2880.0,,,1.0,,,4272433.0,,8,,0.0,,0.0,,0.0,,,0.0,,,,,,,,,,0.0,,,
4,1711369737173,2024-03-25 17:58:57.173,91.6667,1258.0,-105.072,49.911,86.0,57.0,1.0,0.0,0.0,0.0,0.0,0.0,0.0,0.0,0.0,1.0,0.0,0.0,0.0,0.0,0.0,0.0,0.0,0.0,0.0,0.0,4.8,105.4,205.8,1.5,0.0,1234066.0,2.0,3.121,58.0,0.0,0.0,47.0,46.0,0.0,0.0,3.119,8.0,,0.0,,22,0.0,0.0,3.087,3.126,0.0,3.087,0.0,46.0,0.0,47.0,0.0,3.126,60.0,0.0,0.0,1.0,0.0,0.0,256.0,,45.0,,2.0,0.0,,0.0,3.122,5718322.0,47.0,0.0,0.0,1.0,0.0,1711369737173,255000.0,,12337.0,3.123,0.0,0.0,0.0,0.0,4.0,0.0,12854.0,1289.084,0.0,3.089,3.121,3354936.0,12732,3.108,0.0,4.0,3.128,3.136,0.0,128.0,3.31,0.0,5728.78,22.686,37.2,,,0.0,47.0,0.0,99.0,45.0,3.136,0.0,,1.0,9.0,,12.182,0.0,41.0,68.0,0.0,,45.0,3.129,63000.0,,3.125,65.0,,0.0,3.127,4272433.0,0.0,22,1.0,0.0,3.124,,1.0,0.0,1.0,0.0,0.0,0.049,0.0,2.0,0.0,3.119,47.0,5.04,5.04,0.0,0.0,4469048.0,0.0,0.0
4,1711369732820,2024-03-25 17:58:52.820,91.6667,963.0,-105.38,50.031,85.0,57.0,1.0,0.0,0.0,0.0,0.0,0.0,0.0,0.0,0.0,1.0,0.0,0.0,0.0,0.0,0.0,0.0,0.0,0.0,0.0,0.0,4.8,105.0,220.1,1.3,0.0,1233950.0,2.0,3.13,59.0,0.0,0.0,47.0,46.0,0.0,0.0,3.126,8.0,,0.0,,27,0.0,0.0,3.096,3.134,0.0,3.096,0.0,46.0,0.0,47.0,0.0,3.136,60.0,0.0,0.0,1.0,0.0,0.0,256.0,,45.0,,2.0,0.0,,0.0,3.132,5718322.0,47.0,0.0,0.0,1.0,0.0,1711369732820,255000.0,,12337.0,3.131,0.0,0.0,0.0,0.0,4.0,0.0,12854.0,1289.084,0.0,3.098,3.128,3354936.0,11241,3.113,0.0,4.0,3.134,3.144,0.0,125.0,3.301,0.0,5758.08,22.802,37.2,,,0.0,47.0,0.0,99.0,45.0,3.144,0.0,,1.0,9.0,,12.241,0.0,41.0,66.0,0.0,,45.0,3.134,63000.0,,3.134,64.0,,0.0,3.133,4272433.0,0.0,22,1.0,0.0,3.129,,1.0,0.0,1.0,0.0,0.0,0.048,0.0,2.0,0.0,3.125,47.0,5.043,5.028,0.0,0.0,4469048.0,0.0,0.0
4,1711369728440,2024-03-25 17:58:48.440,91.6667,1083.0,-40.29,51.173,37.0,57.0,1.0,0.0,0.0,0.0,0.0,0.0,0.0,0.0,0.0,1.0,0.0,0.0,0.0,0.0,0.0,0.0,0.0,0.0,0.0,0.0,5.0,39.3,109.1,1.1,0.0,1233892.0,2.0,3.199,58.0,0.0,0.0,47.0,46.0,0.0,0.0,3.198,16.0,,0.0,,23,0.0,0.0,3.182,3.201,0.0,3.187,0.0,46.0,0.0,47.0,0.0,3.203,60.0,0.0,0.0,1.0,0.0,0.0,256.0,,45.0,,2.0,0.0,,0.0,3.201,5718322.0,47.0,0.0,0.0,1.0,0.0,1711369728440,255000.0,,12337.0,3.199,0.0,0.0,0.0,0.0,4.0,0.0,12854.0,1289.084,0.0,3.182,3.197,3354936.0,9711,3.194,0.0,4.0,3.204,3.205,0.0,124.0,3.31,0.0,5772.72,22.86,37.2,,,0.0,47.0,0.0,99.0,45.0,3.205,0.0,,1.0,9.0,,12.178,0.0,41.0,66.0,0.0,,45.0,3.203,63000.0,,3.2,64.0,,0.0,3.2,4272433.0,0.0,22,1.0,0.0,3.2,,1.0,0.0,1.0,0.0,0.0,0.023,0.0,2.0,0.0,3.198,47.0,5.048,5.042,0.0,0.0,4469048.0,0.0,0.0
4,1711369724100,2024-03-25 17:58:44.100,20.8333,1628.0,,,100.0,,,,,,,,,,,,0.0,0.0,0.0,0.0,0.0,0.0,0.0,0.0,0.0,0.0,4.8,84.6,146.6,1.7,,,,,,0.0,,,,0.0,,,,,,,10,,,,,,,,,,,0.0,,,,,1.0,,,256.0,,,,2.0,0.0,,,,,,0.0,,,,1711369724100,,,,,,,,,,,,,0.0,,,,8192,,,,,,,123.0,,,,,,,,,,,,,,0.0,,1.0,,,,0.0,,65.0,,,,,,,,,,,,,,5,,0.0,,,,0.0,,,0.0,,,,,,,,,,0.0,,,
4,1711369719760,2024-03-25 17:58:39.760,95.8333,1675.0,-79.286,50.421,100.0,58.0,1.0,0.0,0.0,0.0,0.0,0.0,0.0,0.0,0.0,1.0,0.0,0.0,0.0,0.0,0.0,0.0,0.0,0.0,0.0,0.0,4.9,81.0,136.7,1.8,0.0,1233700.0,2.0,3.153,58.0,0.0,0.0,47.0,46.0,0.0,0.0,3.151,8.0,1.0,0.0,20.0,28,0.0,0.0,3.123,3.157,0.0,3.123,0.0,46.0,0.0,47.0,0.0,3.16,59.0,0.0,0.0,1.0,0.0,0.0,256.0,,45.0,0.0,2.0,0.0,0.0,0.0,3.157,5718322.0,47.0,0.0,0.0,1.0,0.0,1711369719760,255000.0,,12337.0,3.155,0.0,0.0,0.0,0.0,4.0,0.0,12854.0,1289.084,0.0,3.126,3.151,3354936.0,6698,3.138,0.0,4.0,3.158,3.165,0.0,122.0,3.312,0.0,5821.21,23.052,37.2,,2.0,0.0,47.0,0.0,99.0,45.0,3.165,0.0,105.0,1.0,9.0,,12.186,0.0,41.0,65.0,0.0,0.0,45.0,3.158,63000.0,2880.0,3.156,64.0,1.0,0.0,3.157,4272433.0,0.0,23,1.0,0.0,3.154,0.0,1.0,0.0,1.0,0.0,0.0,0.042,0.0,2.0,0.0,3.153,47.0,5.04,5.042,0.0,0.0,4469048.0,0.0,0.0
4,1711369715500,2024-03-25 17:58:35.500,91.6667,1574.0,-88.874,50.325,100.0,58.0,1.0,0.0,0.0,0.0,0.0,0.0,0.0,0.0,0.0,1.0,0.0,0.0,0.0,0.0,0.0,0.0,0.0,0.0,0.0,0.0,4.8,88.0,153.7,1.7,0.0,1233609.0,2.0,3.149,58.0,0.0,0.0,47.0,46.0,0.0,0.0,3.145,16.0,,0.0,,27,0.0,0.0,3.118,3.149,0.0,3.119,0.0,46.0,0.0,47.0,0.0,3.15,59.0,0.0,0.0,1.0,0.0,0.0,256.0,,45.0,,2.0,0.0,,0.0,3.148,5718322.0,47.0,0.0,0.0,1.0,0.0,1711369715500,255000.0,,12337.0,3.148,0.0,0.0,0.0,0.0,4.0,0.0,12854.0,1289.084,0.0,3.118,3.147,3354936.0,5214,3.133,0.0,4.0,3.155,3.16,0.0,121.0,3.286,0.0,5844.19,23.143,37.2,,,0.0,47.0,0.0,99.0,45.0,3.16,0.0,,1.0,9.0,,12.186,0.0,41.0,64.0,0.0,,45.0,3.152,63000.0,,3.153,63.0,,0.0,3.15,4272433.0,0.0,22,1.0,0.0,3.151,,1.0,0.0,1.0,0.0,0.0,0.042,0.0,2.0,0.0,3.143,47.0,5.023,5.005,0.0,0.0,4469048.0,0.0,0.0
4,1711369711240,2024-03-25 17:58:31.240,95.8333,1736.0,-72.07,50.584,89.0,58.0,1.0,0.0,0.0,0.0,0.0,0.0,0.0,0.0,0.0,1.0,0.0,0.0,0.0,0.0,0.0,0.0,0.0,0.0,0.0,0.0,4.9,75.6,119.5,1.8,0.0,1233493.0,2.0,3.161,58.0,0.0,0.0,47.0,46.0,0.0,0.0,3.161,16.0,1.0,0.0,20.0,28,0.0,0.0,3.136,3.165,0.0,3.142,0.0,46.0,0.0,47.0,0.0,3.169,59.0,0.0,0.0,1.0,0.0,0.0,256.0,,45.0,0.0,2.0,0.0,0.0,0.0,3.165,5718322.0,47.0,0.0,0.0,1.0,0.0,1711369711240,255000.0,,12337.0,3.164,0.0,0.0,0.0,0.0,4.0,0.0,12854.0,1289.084,0.0,3.136,3.164,3354936.0,3754,3.15,0.0,4.0,3.167,3.175,0.0,120.0,3.309,0.0,5873.48,23.259,37.2,,2.0,0.0,47.0,0.0,99.0,45.0,3.175,0.0,105.0,1.0,9.0,,12.182,0.0,41.0,64.0,0.0,0.0,45.0,3.168,63000.0,2880.0,3.165,63.0,1.0,0.0,3.168,4272433.0,0.0,23,1.0,0.0,3.163,0.0,1.0,0.0,1.0,0.0,0.0,0.039,0.0,2.0,0.0,3.162,47.0,5.038,5.04,0.0,0.0,4469048.0,0.0,0.0
4,1711369706920,2024-03-25 17:58:26.920,20.8333,2165.0,,,95.0,,,,,,,,,,,,0.0,0.0,0.0,0.0,0.0,0.0,0.0,0.0,0.0,0.0,4.9,84.8,118.7,2.1,,,,,,0.0,,,,0.0,,,,,,,5,,,,,,,,,,,0.0,,,,,1.0,,,256.0,,,,2.0,0.0,,,,,,0.0,,,,1711369706920,,,,,,,,,,,,,0.0,,,,2230,,,,,,,119.0,,,,,,,,,,,,,,0.0,,1.0,,,,0.0,,63.0,,,,,,,,,,,,,,5,,0.0,,,,0.0,,,0.0,,,,,,,,,,0.0,,,
4,1711369702660,2024-03-25 17:58:22.660,91.6667,1744.0,-73.138,50.559,100.0,59.0,1.0,0.0,0.0,0.0,0.0,0.0,0.0,0.0,0.0,1.0,0.0,0.0,0.0,0.0,0.0,0.0,0.0,0.0,0.0,0.0,4.9,77.1,147.5,1.8,0.0,1233314.0,2.0,3.16,58.0,0.0,0.0,47.0,46.0,0.0,0.0,3.159,8.0,,0.0,,27,0.0,0.0,3.137,3.162,0.0,3.137,0.0,46.0,0.0,47.0,0.0,3.165,59.0,0.0,0.0,1.0,0.0,0.0,256.0,,45.0,,2.0,0.0,,0.0,3.164,5718322.0,47.0,0.0,0.0,1.0,0.0,1711369702660,255000.0,,12337.0,3.163,0.0,0.0,0.0,0.0,4.0,0.0,12854.0,1289.084,0.0,3.137,3.163,3354936.0,768,3.149,0.0,4.0,3.165,3.175,0.0,118.0,3.31,0.0,5918.68,23.438,37.2,,,0.0,47.0,0.0,99.0,45.0,3.175,0.0,,1.0,9.0,,12.19,0.0,41.0,63.0,0.0,,45.0,3.165,63000.0,,3.164,62.0,,0.0,3.166,4272433.0,0.0,22,1.0,0.0,3.163,,1.0,0.0,1.0,0.0,0.0,0.038,0.0,2.0,0.0,3.161,47.0,5.035,5.04,0.0,0.0,4469048.0,0.0,0.0
4,1711369698360,2024-03-25 17:58:18.360,91.6667,1671.0,-76.443,50.592,77.0,59.0,1.0,0.0,0.0,0.0,0.0,0.0,0.0,0.0,0.0,1.0,0.0,0.0,0.0,0.0,0.0,0.0,0.0,0.0,0.0,0.0,4.9,80.9,133.5,1.8,0.0,1233196.0,2.0,3.165,57.0,0.0,0.0,47.0,46.0,0.0,0.0,3.162,8.0,,0.0,,22,0.0,0.0,3.134,3.167,0.0,3.134,0.0,46.0,0.0,47.0,0.0,3.168,59.0,0.0,0.0,1.0,0.0,0.0,256.0,,45.0,,2.0,0.0,,0.0,3.164,5718322.0,47.0,0.0,0.0,1.0,0.0,1711369698360,255000.0,,12337.0,3.167,0.0,0.0,0.0,0.0,4.0,0.0,12854.0,1289.084,0.0,3.142,3.163,3354936.0,64813,3.152,0.0,4.0,3.169,3.175,0.0,117.0,3.31,0.0,5948.48,23.556,37.2,,,0.0,47.0,0.0,99.0,45.0,3.175,0.0,,1.0,9.0,,12.182,0.0,41.0,62.0,0.0,,45.0,3.166,63000.0,,3.167,62.0,,0.0,3.167,4272433.0,0.0,22,1.0,0.0,3.167,,1.0,0.0,1.0,0.0,0.0,0.041,0.0,2.0,0.0,3.159,47.0,5.04,5.04,0.0,0.0,4469048.0,0.0,0.0
4,1711369693920,2024-03-25 17:58:13.920,91.6667,1792.0,-70.151,50.801,100.0,59.0,1.0,0.0,0.0,0.0,0.0,0.0,0.0,0.0,0.0,1.0,0.0,0.0,0.0,0.0,0.0,0.0,0.0,0.0,0.0,0.0,4.9,71.9,118.6,1.8,0.0,1233114.0,2.0,3.175,57.0,0.0,0.0,47.0,46.0,0.0,0.0,3.175,16.0,,0.0,,27,0.0,0.0,3.152,3.179,0.0,3.155,0.0,46.0,0.0,47.0,0.0,3.183,59.0,0.0,0.0,1.0,0.0,0.0,256.0,,45.0,,2.0,0.0,,0.0,3.18,5718322.0,47.0,0.0,0.0,1.0,0.0,1711369693920,255000.0,,12337.0,3.178,0.0,0.0,0.0,0.0,4.0,0.0,12854.0,1289.084,0.0,3.152,3.177,3354936.0,63284,3.163,0.0,4.0,3.18,3.187,0.0,117.0,3.309,0.0,5969.19,23.638,37.2,,,0.0,47.0,0.0,99.0,45.0,3.187,0.0,,1.0,9.0,,12.173,0.0,41.0,62.0,0.0,,45.0,3.182,63000.0,,3.179,61.0,,0.0,3.179,4272433.0,0.0,22,1.0,0.0,3.176,,1.0,0.0,1.0,0.0,0.0,0.035,0.0,2.0,0.0,3.176,47.0,5.048,5.037,0.0,0.0,4469048.0,0.0,0.0
4,1711369689660,2024-03-25 17:58:09.660,91.6667,1822.0,-69.76,50.828,100.0,59.0,1.0,0.0,0.0,0.0,0.0,0.0,0.0,0.0,0.0,1.0,0.0,0.0,0.0,0.0,0.0,0.0,0.0,0.0,0.0,0.0,4.9,72.9,122.7,1.8,0.0,1233034.0,2.0,3.179,57.0,0.0,0.0,46.0,46.0,0.0,0.0,3.176,8.0,,0.0,,22,0.0,0.0,3.152,3.18,0.0,3.152,0.0,46.0,0.0,47.0,0.0,3.182,59.0,0.0,0.0,1.0,0.0,0.0,256.0,,45.0,,2.0,0.0,,0.0,3.18,5718322.0,47.0,0.0,0.0,1.0,0.0,1711369689660,255000.0,,12337.0,3.179,0.0,0.0,0.0,0.0,4.0,0.0,12854.0,1289.084,0.0,3.158,3.176,3354936.0,61793,3.17,0.0,4.0,3.184,3.187,0.0,117.0,3.311,0.0,5989.39,23.718,37.2,,,0.0,47.0,0.0,99.0,45.0,3.187,0.0,,1.0,9.0,,12.182,0.0,41.0,62.0,0.0,,45.0,3.183,63000.0,,3.183,61.0,,0.0,3.18,4272433.0,0.0,22,1.0,0.0,3.179,,1.0,0.0,1.0,0.0,0.0,0.035,0.0,2.0,0.0,3.176,47.0,5.045,5.042,0.0,0.0,4469048.0,0.0,0.0
4,1711369685360,2024-03-25 17:58:05.360,91.6667,1515.0,-53.644,51.363,40.0,60.0,1.0,0.0,0.0,0.0,0.0,0.0,0.0,0.0,0.0,1.0,0.0,0.0,0.0,0.0,0.0,0.0,0.0,0.0,0.0,0.0,5.0,56.0,46.5,1.5,0.0,1232940.0,2.0,3.211,57.0,0.0,0.0,46.0,46.0,0.0,0.0,3.21,16.0,,0.0,,22,0.0,0.0,3.192,3.212,0.0,3.193,0.0,46.0,0.0,47.0,0.0,3.214,59.0,0.0,0.0,1.0,0.0,0.0,256.0,,45.0,,2.0,0.0,,0.0,3.213,5718322.0,47.0,0.0,0.0,1.0,0.0,1711369685360,255000.0,,12337.0,3.21,0.0,0.0,0.0,0.0,4.0,0.0,12854.0,1289.084,0.0,3.192,3.211,3354936.0,60302,3.203,0.0,4.0,3.218,3.219,0.0,117.0,3.311,0.0,6013.13,23.812,37.2,,,0.0,47.0,0.0,99.0,45.0,3.219,0.0,,1.0,9.0,,12.19,0.0,41.0,62.0,0.0,,45.0,3.216,63062.0,,3.217,60.0,,0.0,3.211,4272433.0,0.0,22,1.0,0.0,3.213,,1.0,0.0,1.0,0.0,0.0,0.027,0.0,2.0,0.0,3.21,47.0,5.035,5.04,0.0,0.0,4469048.0,0.0,0.0
4,1711369681060,2024-03-25 17:58:01.060,95.8333,1425.0,-2.073,52.239,1.0,60.0,1.0,0.0,0.0,0.0,0.0,0.0,0.0,0.0,0.0,1.0,0.0,0.0,0.0,0.0,0.0,0.0,0.0,0.0,0.0,0.0,5.2,0.9,15.7,1.1,0.0,1232927.0,2.0,3.266,57.0,0.0,0.0,46.0,46.0,0.0,0.0,3.264,16.0,1.0,0.0,20.0,28,0.0,0.0,3.257,3.266,0.0,3.264,0.0,46.0,0.0,47.0,0.0,3.267,59.0,0.0,0.0,1.0,0.0,0.0,256.0,,45.0,0.0,2.0,0.0,0.0,0.0,3.265,5718322.0,47.0,0.0,0.0,1.0,0.0,1711369681060,255000.0,,12337.0,3.265,0.0,0.0,0.0,0.0,4.0,0.0,12854.0,1289.084,0.0,3.257,3.264,3354936.0,58808,3.266,0.0,4.0,3.266,3.264,0.0,117.0,3.311,0.0,6016.41,23.825,37.2,,2.0,0.0,47.0,0.0,99.0,45.0,3.267,0.0,105.0,1.0,3.0,,12.186,0.0,41.0,62.0,0.0,0.0,45.0,3.266,63078.0,2880.0,3.266,61.0,1.0,0.0,3.266,4272433.0,0.0,23,1.0,0.0,3.267,0.0,1.0,0.0,1.0,0.0,0.0,0.01,0.0,2.0,0.0,3.264,47.0,5.045,5.042,0.0,0.0,4469048.0,0.0,0.0
4,1711369676720,2024-03-25 17:57:56.720,83.3333,1324.0,-4.218,52.033,2.0,60.0,1.0,0.0,0.0,0.0,0.0,0.0,0.0,0.0,0.0,1.0,0.0,0.0,0.0,0.0,0.0,0.0,0.0,0.0,0.0,0.0,5.2,0.6,44.8,1.1,0.0,1232912.0,2.0,3.253,57.0,0.0,0.0,46.0,46.0,0.0,0.0,3.252,16.0,,0.0,,25,0.0,0.0,3.246,3.253,0.0,3.25,0.0,46.0,0.0,47.0,0.0,3.254,58.0,0.0,0.0,1.0,0.0,0.0,256.0,,45.0,,2.0,0.0,,0.0,3.252,5718322.0,47.0,0.0,0.0,1.0,0.0,1711369676720,255000.0,,12337.0,3.251,0.0,0.0,0.0,0.0,4.0,0.0,,1289.084,0.0,3.246,3.251,,57303,3.251,0.0,4.0,3.255,3.251,0.0,115.0,3.31,0.0,,23.84,,,,0.0,47.0,0.0,99.0,45.0,3.255,0.0,,1.0,13.0,,12.182,0.0,41.0,62.0,0.0,,45.0,3.255,63096.0,,3.255,62.0,,0.0,3.253,,0.0,20,1.0,0.0,3.253,,1.0,0.0,1.0,0.0,0.0,0.009,0.0,2.0,0.0,3.25,47.0,5.045,5.042,0.0,0.0,4469048.0,0.0,0.0
4,1711369671640,2024-03-25 17:57:51.640,91.6667,1243.0,-105.298,50.203,94.0,60.0,1.0,0.0,0.0,0.0,0.0,0.0,0.0,0.0,0.0,1.0,0.0,0.0,0.0,0.0,0.0,0.0,0.0,0.0,0.0,0.0,4.8,104.3,212.9,1.5,0.0,1232788.0,2.0,3.141,57.0,0.0,0.0,46.0,46.0,0.0,0.0,3.137,8.0,,0.0,,27,0.0,0.0,3.107,3.141,0.0,3.107,0.0,46.0,0.0,47.0,0.0,3.144,59.0,0.0,0.0,1.0,0.0,0.0,256.0,,45.0,,2.0,0.0,,0.0,3.14,5718322.0,47.0,0.0,0.0,1.0,0.0,1711369671640,255000.0,,12337.0,3.145,0.0,0.0,0.0,0.0,4.0,0.0,12854.0,1289.084,0.0,3.109,3.139,3354936.0,55547,3.122,0.0,4.0,3.145,3.155,0.0,111.0,3.309,0.0,6051.51,23.964,37.2,,,0.0,47.0,0.0,99.0,45.0,3.155,0.0,,1.0,9.0,,12.182,0.0,41.0,61.0,0.0,,45.0,3.146,63247.0,,3.146,61.0,,0.0,3.142,4272433.0,0.0,22,1.0,0.0,3.142,,1.0,0.0,1.0,0.0,0.0,0.048,0.0,2.0,0.0,3.139,47.0,5.028,5.002,0.0,0.0,4469048.0,0.0,0.0
4,1711369667080,2024-03-25 17:57:47.080,91.6667,448.0,-55.102,51.349,77.0,60.0,1.0,0.0,0.0,0.0,0.0,0.0,0.0,0.0,0.0,1.0,0.0,0.0,0.0,0.0,0.0,0.0,0.0,0.0,0.0,0.0,5.0,55.9,194.6,0.8,0.0,1232694.0,2.0,3.21,57.0,0.0,0.0,46.0,46.0,0.0,0.0,3.209,8.0,,0.0,,27,0.0,0.0,3.192,3.212,0.0,3.192,0.0,46.0,0.0,47.0,0.0,3.213,59.0,0.0,0.0,1.0,0.0,0.0,256.0,,45.0,,2.0,0.0,,0.0,3.21,5718322.0,47.0,0.0,0.0,1.0,0.0,1711369667080,255000.0,,12337.0,3.213,0.0,0.0,0.0,0.0,4.0,0.0,12854.0,1289.084,0.0,3.192,3.211,3354936.0,53954,3.203,0.0,4.0,3.215,3.218,0.0,108.0,3.312,0.0,6075.25,24.058,37.2,,,0.0,47.0,0.0,99.0,45.0,3.218,0.0,,1.0,9.0,,12.178,0.0,41.0,59.0,0.0,,45.0,3.214,63360.0,,3.213,60.0,,0.0,3.213,4272433.0,0.0,22,1.0,0.0,3.211,,1.0,0.0,1.0,0.0,0.0,0.026,0.0,2.0,0.0,3.209,47.0,5.048,5.042,0.0,0.0,4469048.0,0.0,0.0
4,1711369662660,2024-03-25 17:57:42.660,95.8333,152.0,-14.812,52.071,46.0,60.0,1.0,0.0,0.0,0.0,0.0,0.0,0.0,0.0,0.0,1.0,0.0,0.0,0.0,0.0,0.0,0.0,0.0,0.0,0.0,0.0,5.1,14.5,97.9,0.3,0.0,1232660.0,2.0,3.255,57.0,0.0,0.0,46.0,46.0,0.0,0.0,3.254,16.0,1.0,0.0,20.0,23,0.0,0.0,3.245,3.256,0.0,3.249,0.0,46.0,0.0,47.0,0.0,3.257,58.0,0.0,0.0,1.0,0.0,0.0,256.0,,45.0,0.0,2.0,0.0,0.0,0.0,3.255,5718322.0,47.0,0.0,0.0,1.0,0.0,1711369662660,255000.0,,12337.0,3.255,0.0,0.0,0.0,0.0,4.0,0.0,12854.0,1289.084,0.0,3.245,3.254,3354936.0,52424,3.253,0.0,4.0,3.257,3.256,0.0,107.0,3.31,0.0,6083.83,24.092,37.2,,2.0,0.0,47.0,0.0,99.0,45.0,3.257,0.0,105.0,1.0,6.0,,12.186,0.0,41.0,58.0,0.0,0.0,45.0,3.257,63402.0,2880.0,3.256,61.0,1.0,0.0,3.256,4272433.0,0.0,23,1.0,0.0,3.256,0.0,1.0,0.0,1.0,0.0,0.0,0.012,0.0,2.0,0.0,3.254,47.0,5.04,5.04,0.0,0.0,4469048.0,0.0,0.0
4,1711369657520,2024-03-25 17:57:37.520,91.6667,352.0,-21.258,51.794,44.0,60.0,1.0,0.0,0.0,0.0,0.0,0.0,0.0,0.0,0.0,1.0,0.0,0.0,0.0,0.0,0.0,0.0,0.0,0.0,0.0,0.0,5.1,21.0,121.9,0.5,0.0,1232648.0,2.0,3.237,57.0,0.0,0.0,46.0,46.0,0.0,0.0,3.237,16.0,,0.0,,27,0.0,0.0,3.227,3.239,0.0,3.229,0.0,46.0,0.0,47.0,0.0,3.24,58.0,0.0,0.0,1.0,0.0,0.0,256.0,,45.0,,2.0,0.0,,0.0,3.238,5718322.0,47.0,0.0,0.0,1.0,0.0,1711369657520,255000.0,,12337.0,3.238,0.0,0.0,0.0,0.0,4.0,0.0,12854.0,1289.084,0.0,3.227,3.237,3354936.0,50643,3.234,0.0,4.0,3.241,3.24,0.0,106.0,3.31,0.0,6086.86,24.104,37.2,,,0.0,47.0,0.0,99.0,45.0,3.241,0.0,,1.0,15.0,,12.186,0.0,41.0,58.0,0.0,,45.0,3.24,63416.0,,3.239,62.0,,0.0,3.239,4272433.0,0.0,22,1.0,0.0,3.239,,1.0,0.0,1.0,0.0,0.0,0.014,0.0,2.0,0.0,3.237,47.0,5.04,5.04,0.0,0.0,4469048.0,0.0,0.0
4,1711369653080,2024-03-25 17:57:33.080,25.0,576.0,,,66.0,,,,,,,,,,,,0.0,0.0,0.0,0.0,0.0,0.0,0.0,0.0,0.0,0.0,5.0,50.2,128.8,0.8,,,,,,0.0,,,,0.0,,,,1.0,,20.0,6,,,,,,,,,,,0.0,,,,,1.0,,,256.0,,,0.0,2.0,0.0,0.0,,,,,0.0,,,,1711369653080,,,,,,,,,,,,,0.0,,,,49092,,,,,,,105.0,,,,,,,2.0,,,,,,,0.0,105.0,1.0,,,,0.0,,57.0,,0.0,,,,2880.0,,,1.0,,,,,6,,0.0,,0.0,,0.0,,,0.0,,,,,,,,,,0.0,,,
4,1711369648460,2024-03-25 17:57:28.460,91.6667,909.0,-33.084,51.441,37.0,61.0,1.0,0.0,0.0,0.0,0.0,0.0,0.0,0.0,0.0,1.0,0.0,0.0,0.0,0.0,0.0,0.0,0.0,0.0,0.0,0.0,5.0,32.6,92.5,1.0,0.0,1232567.0,2.0,3.216,56.0,0.0,0.0,46.0,46.0,0.0,0.0,3.215,16.0,,0.0,,27,0.0,0.0,3.2,3.217,0.0,3.203,0.0,46.0,0.0,47.0,0.0,3.218,58.0,0.0,0.0,1.0,0.0,0.0,256.0,,45.0,,2.0,0.0,,0.0,3.217,5718322.0,46.0,0.0,0.0,1.0,0.0,1711369648460,255000.0,,12337.0,3.217,0.0,0.0,0.0,0.0,4.0,0.0,12854.0,1289.084,0.0,3.2,3.215,3354936.0,47545,3.211,0.0,7.0,3.22,3.22,0.0,105.0,3.311,0.0,6107.32,24.185,37.2,,,0.0,47.0,0.0,99.0,44.0,3.22,0.0,,1.0,9.0,,12.186,0.0,41.0,57.0,0.0,,44.0,3.219,63515.0,,3.219,64.0,,0.0,3.217,4272433.0,0.0,22,1.0,0.0,3.217,,1.0,0.0,5.0,0.0,0.0,0.02,0.0,2.0,0.0,3.215,47.0,5.043,5.042,0.0,0.0,4469048.0,0.0,0.0
4,1711369644172,2024-03-25 17:57:24.172,91.6667,1747.0,-17.963,51.567,13.0,61.0,1.0,0.0,0.0,0.0,0.0,0.0,0.0,0.0,0.0,1.0,0.0,0.0,0.0,0.0,0.0,0.0,0.0,0.0,0.0,0.0,5.1,17.5,73.4,1.5,0.0,1232522.0,2.0,3.223,56.0,0.0,0.0,46.0,46.0,0.0,0.0,3.222,16.0,,0.0,,27,0.0,0.0,3.213,3.225,0.0,3.215,0.0,46.0,0.0,47.0,0.0,3.226,58.0,0.0,0.0,1.0,0.0,0.0,256.0,,45.0,,2.0,0.0,,0.0,3.224,5718322.0,46.0,0.0,0.0,1.0,0.0,1711369644172,255000.0,,12337.0,3.224,0.0,0.0,0.0,0.0,4.0,0.0,12854.0,1289.084,0.0,3.213,3.221,3354936.0,46054,3.221,0.0,7.0,3.228,3.224,0.0,104.0,3.309,0.0,6118.68,24.23,37.2,,,0.0,47.0,0.0,99.0,44.0,3.228,0.0,,1.0,15.0,,12.182,0.0,41.0,57.0,0.0,,44.0,3.226,63569.0,,3.225,64.0,,0.0,3.224,4272433.0,0.0,22,1.0,0.0,3.226,,1.0,0.0,5.0,0.0,0.0,0.015,0.0,2.0,0.0,3.222,47.0,5.04,5.04,0.0,0.0,4469048.0,0.0,0.0
4,1711369639840,2024-03-25 17:57:19.840,95.8333,2228.0,-85.035,50.315,100.0,61.0,1.0,0.0,0.0,0.0,0.0,0.0,0.0,0.0,0.0,1.0,0.0,0.0,0.0,0.0,0.0,0.0,0.0,0.0,0.0,0.0,4.8,88.1,118.4,2.2,0.0,1232432.0,2.0,3.146,56.0,0.0,0.0,46.0,46.0,0.0,0.0,3.144,8.0,1.0,0.0,20.0,28,0.0,0.0,3.114,3.148,0.0,3.114,0.0,46.0,0.0,47.0,0.0,3.153,58.0,0.0,0.0,1.0,0.0,0.0,256.0,,45.0,0.0,2.0,0.0,0.0,0.0,3.151,5718322.0,46.0,0.0,0.0,1.0,0.0,1711369639840,255000.0,,12337.0,3.149,0.0,0.0,0.0,0.0,4.0,0.0,12854.0,1289.084,0.0,3.119,3.148,3354936.0,44560,3.135,0.0,7.0,3.151,3.157,0.0,103.0,3.31,0.0,6141.41,24.32,37.2,,2.0,0.0,47.0,0.0,99.0,44.0,3.157,0.0,105.0,1.0,9.0,,12.178,0.0,41.0,56.0,0.0,0.0,44.0,3.152,63678.0,2880.0,3.15,64.0,1.0,0.0,3.148,4272433.0,0.0,23,1.0,0.0,3.147,0.0,1.0,0.0,5.0,0.0,0.0,0.043,0.0,2.0,0.0,3.147,47.0,5.05,5.04,0.0,0.0,4469048.0,0.0,0.0
4,1711369635520,2024-03-25 17:57:15.520,20.8333,2553.0,,,100.0,,,,,,,,,,,,0.0,0.0,0.0,0.0,0.0,0.0,0.0,0.0,0.0,0.0,4.8,100.8,118.6,2.5,,,,,,0.0,,,,0.0,,,,,,,5,,,,,,,,,,,0.0,,,,,1.0,,,256.0,,,,2.0,0.0,,,,,,0.0,,,,1711369635520,,,,,,,,,,,,,0.0,,,,43039,,,,,,,103.0,,,,,,,,,,,,,,0.0,,1.0,,,,0.0,,56.0,,,,,,,,,,,,,,5,,0.0,,,,0.0,,,0.0,,,,,,,,,,0.0,,,
4,1711369631180,2024-03-25 17:57:11.180,20.8333,2758.0,,,66.0,,,,,,,,,,,,0.0,0.0,0.0,0.0,0.0,0.0,0.0,0.0,0.0,0.0,4.8,105.3,114.0,2.7,,,,,,0.0,,,,0.0,,,,,,,5,,,,,,,,,,,0.0,,,,,1.0,,,256.0,,,,2.0,0.0,,,,,,0.0,,,,1711369631180,,,,,,,,,,,,,0.0,,,,41543,,,,,,,102.0,,,,,,,,,,,,,,0.0,,1.0,,,,0.0,,56.0,,,,,,,,,,,,,,5,,0.0,,,,0.0,,,0.0,,,,,,,,,,0.0,,,
4,1711369626900,2024-03-25 17:57:06.900,91.6667,2840.0,-100.925,50.115,67.0,62.0,1.0,0.0,0.0,0.0,0.0,0.0,0.0,0.0,0.0,1.0,0.0,0.0,0.0,0.0,0.0,0.0,0.0,0.0,0.0,0.0,4.8,104.7,111.2,2.7,0.0,1232083.0,2.0,3.137,56.0,0.0,0.0,46.0,46.0,0.0,0.0,3.132,8.0,,0.0,,27,0.0,0.0,3.097,3.139,0.0,3.097,0.0,46.0,0.0,47.0,0.0,3.138,57.0,0.0,0.0,1.0,0.0,0.0,256.0,,44.0,,2.0,0.0,,0.0,3.136,5718322.0,46.0,0.0,0.0,1.0,0.0,1711369626900,255000.0,,12337.0,3.136,0.0,0.0,0.0,0.0,4.0,0.0,12854.0,1289.084,0.0,3.104,3.133,3354936.0,40072,3.119,0.0,7.0,3.14,3.152,0.0,101.0,3.31,0.0,6229.54,24.669,37.2,,,0.0,47.0,0.0,99.0,44.0,3.152,0.0,,1.0,9.0,,12.186,0.0,41.0,56.0,0.0,,44.0,3.143,64101.0,,3.136,62.0,,0.0,3.137,4272433.0,0.0,22,1.0,0.0,3.136,,1.0,0.0,1.0,0.0,0.0,0.055,0.0,2.0,0.0,3.132,47.0,5.04,5.04,0.0,0.0,4469048.0,0.0,0.0
4,1711369622220,2024-03-25 17:57:02.220,20.8333,2862.0,,,73.0,,,,,,,,,,,,0.0,0.0,0.0,0.0,0.0,0.0,0.0,0.0,0.0,0.0,4.8,105.5,112.1,2.7,,,,,,0.0,,,,0.0,,,,,,,5,,,,,,,,,,,0.0,,,,,1.0,,,256.0,,,,2.0,0.0,,,,,,0.0,,,,1711369622220,,,,,,,,,,,,,0.0,,,,38425,,,,,,,100.0,,,,,,,,,,,,,,0.0,,1.0,,,,0.0,,55.0,,,,,,,,,,,,,,5,,0.0,,,,0.0,,,0.0,,,,,,,,,,0.0,,,
4,1711369617900,2024-03-25 17:56:57.900,20.8333,2754.0,,,77.0,,,,,,,,,,,,0.0,0.0,0.0,0.0,0.0,0.0,0.0,0.0,0.0,0.0,4.8,105.4,116.8,2.6,,,,,,0.0,,,,0.0,,,,,,,10,,,,,,,,,,,0.0,,,,,1.0,,,256.0,,,,2.0,0.0,,,,,,0.0,,,,1711369617900,,,,,,,,,,,,,0.0,,,,36931,,,,,,,99.0,,,,,,,,,,,,,,0.0,,1.0,,,,0.0,,55.0,,,,,,,,,,,,,,5,,0.0,,,,0.0,,,0.0,,,,,,,,,,0.0,,,
4,1711369615401,2024-03-25 17:56:55.401,91.6667,2691.0,-100.001,50.281,82.0,63.0,1.0,0.0,0.0,0.0,0.0,0.0,0.0,0.0,0.0,1.0,0.0,0.0,0.0,0.0,0.0,0.0,0.0,0.0,0.0,0.0,4.8,105.0,118.8,2.6,0.0,1231750.0,2.0,3.146,55.0,0.0,0.0,46.0,46.0,0.0,0.0,3.142,8.0,,0.0,,27,0.0,0.0,3.108,3.148,0.0,3.108,0.0,46.0,0.0,47.0,0.0,3.149,57.0,0.0,0.0,1.0,0.0,0.0,256.0,,44.0,,2.0,0.0,,0.0,3.147,5718322.0,46.0,0.0,0.0,1.0,0.0,1711369615401,255000.0,,12337.0,3.147,0.0,0.0,0.0,0.0,4.0,0.0,12854.0,1289.084,0.0,3.113,3.147,3354936.0,36065,3.129,0.0,7.0,3.154,3.162,0.0,99.0,3.293,0.0,6313.63,25.002,37.2,,,0.0,47.0,0.0,99.0,44.0,3.162,0.0,,1.0,9.0,,12.186,0.0,41.0,55.0,0.0,,44.0,3.149,64505.0,,3.148,59.0,,0.0,3.148,4272433.0,0.0,22,1.0,0.0,3.146,,1.0,0.0,1.0,0.0,0.0,0.054,0.0,2.0,0.0,3.14,47.0,5.025,5.005,0.0,0.0,4469048.0,0.0,0.0